##TITLE=2 empty
##$NOTE=11.03.2023 11:00:3 ^0 x10 v:1 [Без приставки]
##$ITAB=-1,-1
##FIRSTX=499.643
##DELTAX=1.92912
##NPOINTS=2333
##XUNITS=1/CM
##YUNITS=TRANSMITTANCE
499.643	8395.13
501.572	7240.49
503.501	8954.58
505.43	9168.51
507.36	9165.17
509.289	8193.08
511.218	7746.56
513.147	8775.45
515.076	10328.2
517.005	10753.1
518.934	10209.4
520.863	8904.32
522.792	7191.43
524.722	7108.82
526.651	8188.92
528.58	9089.48
530.509	8974.22
532.438	7763.59
534.367	6507.47
536.296	7268.92
538.225	9808.34
540.155	10518.6
542.084	9600.91
544.013	7264.72
545.942	5732.59
547.871	4286.22
549.8	4791.52
551.729	7025.32
553.658	7639.66
555.588	8807.71
557.517	8361.36
559.446	8791.34
561.375	9907.44
563.304	9921.74
565.233	10619
567.162	11448.9
569.091	9894.25
571.021	10145.1
572.95	11947.2
574.879	12993.6
576.808	13201.3
578.737	13114.2
580.666	13272.2
582.595	13034.8
584.524	12834.6
586.454	12419
588.383	11856.8
590.312	12645
592.241	11615.6
594.17	7692.6
596.099	9712.51
598.028	11858.5
599.957	10812.5
601.887	10054.5
603.816	9795.39
605.745	9684.89
607.674	7976.26
609.603	6988.78
611.532	8073.04
613.461	9248.06
615.39	9603.84
617.32	8967.12
619.249	10062.7
621.178	9022.51
623.107	7347.73
625.036	7525.97
626.965	8301.61
628.894	8518.58
630.823	7146.7
632.753	5925.96
634.682	6064.96
636.611	7379.5
638.54	8867.74
640.469	9414.6
642.398	7471.56
644.327	5672.69
646.256	6482.64
648.186	8930.09
650.115	10364.1
652.044	12468.2
653.973	12984.4
655.902	10930.4
657.831	8234.34
659.76	6357.87
661.689	6108.07
663.619	6139.26
665.548	6972.04
667.477	7169.76
669.406	6565.39
671.335	6035.96
673.264	6332.89
675.193	6392.71
677.122	6547.2
679.052	6671
680.981	5861.36
682.91	5716.92
684.839	7496.11
686.768	8693.22
688.697	9326.41
690.626	9183.07
692.555	9316.09
694.485	8650.27
696.414	8450.11
698.343	10805.7
700.272	12294.2
702.201	13983.7
704.13	15776.7
706.059	16232.5
707.988	14666.9
709.917	11560.7
711.847	8735.55
713.776	7914.12
715.705	8486.21
717.634	9995.02
719.563	8675.39
721.492	7073.54
723.421	11079.5
725.35	11421
727.28	10244.5
729.209	9055.26
731.138	8718.76
733.067	9342.3
734.996	8049.48
736.925	5444.15
738.854	6441.85
740.783	7149.33
742.713	9305.68
744.642	10364.6
746.571	8469.59
748.5	8044.13
750.429	8351.79
752.358	9815.19
754.287	9302.97
756.216	8358.12
758.146	6718.65
760.075	6671.61
762.004	9316.93
763.933	7827.06
765.862	6582.28
767.791	5617.64
769.72	5063.69
771.649	7769.92
773.579	9344.95
775.508	9782.03
777.437	7665.41
779.366	6948.17
781.295	8609.65
783.224	8794.79
785.153	10131
787.082	11294.5
789.012	10667.7
790.941	8524.31
792.87	6637.1
794.799	5822.57
796.728	7346.4
798.657	7908
800.586	8035.84
802.515	8278.54
804.445	7772.03
806.374	9766.36
808.303	9874.84
810.232	8328
812.161	9350.56
814.09	10447.9
816.019	11396.3
817.948	14352.1
819.878	15775.9
821.807	14483
823.736	12150.1
825.665	10793.8
827.594	9279.45
829.523	9760.82
831.452	10213.8
833.381	11042.5
835.311	11354.2
837.24	10802
839.169	9704.87
841.098	9715.68
843.027	8379.82
844.956	7651.1
846.885	8212.32
848.814	8790.63
850.744	8585.48
852.673	9219.8
854.602	9940.48
856.531	10525
858.46	9938.68
860.389	10103.5
862.318	10861.8
864.247	9465.17
866.177	7248.65
868.106	5338.72
870.035	6705.47
871.964	8469.28
873.893	8584.25
875.822	9662.22
877.751	10044.9
879.68	8569.06
881.609	9608.54
883.539	9642.24
885.468	9946.22
887.397	9362.26
889.326	8797.19
891.255	9143.88
893.184	8714.19
895.113	8411.19
897.042	9251.81
898.972	8484.58
900.901	8457.8
902.83	10015.5
904.759	10295.4
906.688	9795.44
908.617	11968.7
910.546	12402.6
912.475	10816.3
914.405	10184.6
916.334	9217.03
918.263	9180.69
920.192	10599.8
922.121	9594.43
924.05	8913.12
925.979	9239.35
927.908	9869.45
929.838	8991.8
931.767	11503.7
933.696	12833.2
935.625	13757.6
937.554	13063.9
939.483	10163.2
941.412	8879.33
943.341	9865.98
945.271	11215.3
947.2	11227.4
949.129	11121.7
951.058	9080.45
952.987	8508.59
954.916	9741.97
956.845	9245.27
958.774	8776.78
960.704	9100.91
962.633	8563.09
964.562	10239.5
966.491	11129
968.42	9809.07
970.349	9274.86
972.278	10517.7
974.207	11372.4
976.137	9181.91
978.066	10409.1
979.995	12986.2
981.924	12744.3
983.853	13285.2
985.782	11874.4
987.711	8349.35
989.64	5655.94
991.57	6584.64
993.499	9007.96
995.428	10316.1
997.357	11861.1
999.286	12564.7
1001.22	14133.6
1003.14	15209.6
1005.07	13751
1007	11721.6
1008.93	12404.1
1010.86	13917.1
1012.79	13884.8
1014.72	11699.3
1016.65	10220.5
1018.58	10054.4
1020.51	12712.4
1022.44	13735.3
1024.36	12728.9
1026.29	11926.3
1028.22	10226
1030.15	9820.91
1032.08	9124.18
1034.01	10840.8
1035.94	12122.7
1037.87	13541.1
1039.8	11469.9
1041.73	10433.1
1043.66	10277.4
1045.58	12253.6
1047.51	12822.8
1049.44	11281.1
1051.37	8680.26
1053.3	6977.54
1055.23	8373.89
1057.16	10257.2
1059.09	10710.5
1061.02	10866.2
1062.95	11834.2
1064.88	12933.8
1066.81	13044.9
1068.73	13097.5
1070.66	12273.6
1072.59	9542.32
1074.52	7420.2
1076.45	7706.99
1078.38	10111.2
1080.31	11622.9
1082.24	11589.1
1084.17	11376.5
1086.1	10772.5
1088.03	10627.2
1089.95	11083.8
1091.88	12008.9
1093.81	13772.4
1095.74	15074
1097.67	14731.1
1099.6	13955.9
1101.53	15119.5
1103.46	14645.9
1105.39	13697.4
1107.32	11729.7
1109.25	10974.6
1111.18	11293
1113.1	10098.5
1115.03	8679.2
1116.96	9888.57
1118.89	13186.7
1120.82	13133.4
1122.75	10560.5
1124.68	11290
1126.61	12356.2
1128.54	10763.8
1130.47	10950.8
1132.4	12193.9
1134.32	13056.6
1136.25	13664.3
1138.18	11841.4
1140.11	11262.3
1142.04	11878.7
1143.97	9927.26
1145.9	8182.16
1147.83	9585.88
1149.76	9579.12
1151.69	11184.2
1153.62	12720.7
1155.55	12936.9
1157.47	13257.4
1159.4	14646.2
1161.33	17018.7
1163.26	18194.4
1165.19	15736.2
1167.12	13636.9
1169.05	12048
1170.98	10502
1172.91	9959.17
1174.84	11852.3
1176.77	13226.7
1178.69	13180.7
1180.62	13274.1
1182.55	12522
1184.48	10776.7
1186.41	8688.76
1188.34	9554.97
1190.27	10435
1192.2	11741.3
1194.13	11777
1196.06	12014.7
1197.99	11196
1199.91	13023.2
1201.84	13111.7
1203.77	13306.3
1205.7	11551.7
1207.63	10729.4
1209.56	10507.1
1211.49	9168.64
1213.42	9456.68
1215.35	10653
1217.28	11140.2
1219.21	12238.5
1221.14	12891.7
1223.06	15268.8
1224.99	15532
1226.92	14375.9
1228.85	14989
1230.78	15793.5
1232.71	13341.4
1234.64	8623.32
1236.57	6179.59
1238.5	5038.56
1240.43	6290.48
1242.36	8852.18
1244.28	9510.29
1246.21	9030.07
1248.14	12420
1250.07	13683.3
1252	13010.3
1253.93	10803
1255.86	9467.2
1257.79	9535.51
1259.72	9486.87
1261.65	8768.87
1263.58	7842.92
1265.51	7624.87
1267.43	8304.06
1269.36	11929.4
1271.29	10974.3
1273.22	8842.24
1275.15	11898.8
1277.08	13469.3
1279.01	11327.9
1280.94	8059.98
1282.87	9093.4
1284.8	11558.8
1286.73	13327.5
1288.65	12414.8
1290.58	11812.9
1292.51	11470.8
1294.44	8524.49
1296.37	9081.11
1298.3	12787.2
1300.23	15311.5
1302.16	15843
1304.09	15279.7
1306.02	12933.4
1307.95	8907.93
1309.87	9554.83
1311.8	11536.7
1313.73	13419.5
1315.66	15397.7
1317.59	15997.1
1319.52	15619
1321.45	14395.1
1323.38	11137.3
1325.31	6581.13
1327.24	7772.63
1329.17	7250.87
1331.1	7328.12
1333.02	8840.12
1334.95	11356.3
1336.88	10233.3
1338.81	7041.53
1340.74	7415.41
1342.67	6175.72
1344.6	8319.85
1346.53	12273.4
1348.46	12545.4
1350.39	11816.4
1352.32	12083.3
1354.24	12003.6
1356.17	12988.6
1358.1	14984
1360.03	15828.1
1361.96	14623.8
1363.89	12529.1
1365.82	12351.2
1367.75	13813.7
1369.68	15021.6
1371.61	14408.3
1373.54	13358.1
1375.47	11733.8
1377.39	10603.4
1379.32	11376.4
1381.25	13214.3
1383.18	14528.5
1385.11	13461
1387.04	12910.4
1388.97	12313.6
1390.9	11585.5
1392.83	12340.5
1394.76	13597.3
1396.69	13606.1
1398.61	13281.5
1400.54	12700
1402.47	10166.5
1404.4	7539.72
1406.33	7380.52
1408.26	8657.55
1410.19	11120.4
1412.12	11577.5
1414.05	8048.46
1415.98	5844.12
1417.91	8534.13
1419.83	10156.2
1421.76	10780.1
1423.69	10621.7
1425.62	8720.79
1427.55	8454.26
1429.48	9440.1
1431.41	9821.04
1433.34	10983.4
1435.27	12091.1
1437.2	11875
1439.13	10501.8
1441.06	9218.37
1442.98	10936.2
1444.91	13673.7
1446.84	11859.2
1448.77	8215.66
1450.7	7269.17
1452.63	8147.94
1454.56	8296.47
1456.49	8457.24
1458.42	7573.65
1460.35	8759.18
1462.28	10237.9
1464.2	11851.2
1466.13	11225.8
1468.06	9026.52
1469.99	7535.34
1471.92	8808.91
1473.85	10813.4
1475.78	11924.5
1477.71	10402.7
1479.64	11446.7
1481.57	12105.7
1483.5	11491.6
1485.43	12069
1487.35	11626.6
1489.28	10895.1
1491.21	8861.91
1493.14	10439.1
1495.07	11248.7
1497	11822.4
1498.93	13757.2
1500.86	15761.1
1502.79	15464.1
1504.72	10851.5
1506.65	6091.96
1508.57	7839.06
1510.5	11479.5
1512.43	14583.8
1514.36	16638.4
1516.29	15872.2
1518.22	15371.6
1520.15	13471.2
1522.08	11208
1524.01	9466.12
1525.94	8764.26
1527.87	8047.78
1529.8	8629.83
1531.72	10208.4
1533.65	10818.3
1535.58	11249
1537.51	12206.4
1539.44	13577.7
1541.37	16029.5
1543.3	14731.4
1545.23	11761.8
1547.16	9592.21
1549.09	9963.9
1551.02	8796.06
1552.94	12577.7
1554.87	12184.7
1556.8	10886.4
1558.73	10340.7
1560.66	11200.6
1562.59	11736
1564.52	14383.8
1566.45	15018.4
1568.38	13215.9
1570.31	11880.9
1572.24	12428.1
1574.16	12144.9
1576.09	8809.64
1578.02	10048.6
1579.95	11731.4
1581.88	13680.3
1583.81	15818.6
1585.74	17704.6
1587.67	13826.9
1589.6	8780.88
1591.53	9957.5
1593.46	10786.9
1595.39	10048.4
1597.31	9404.3
1599.24	9994.71
1601.17	10157.6
1603.1	11334.4
1605.03	14132
1606.96	16086
1608.89	15813.4
1610.82	14405.4
1612.75	15350
1614.68	14222.2
1616.61	10702
1618.53	8161.76
1620.46	7177.24
1622.39	6924.96
1624.32	9767.41
1626.25	12677.4
1628.18	13056.6
1630.11	12548.1
1632.04	11953.6
1633.97	12026.6
1635.9	9519.27
1637.83	10519
1639.76	12244.3
1641.68	12943.2
1643.61	11267.7
1645.54	11259.9
1647.47	10307.4
1649.4	10617.1
1651.33	11513.3
1653.26	12386.5
1655.19	13243.1
1657.12	13703.4
1659.05	12535.6
1660.98	10253.4
1662.9	8770.25
1664.83	6319.2
1666.76	8372.84
1668.69	14195.6
1670.62	17511.6
1672.55	15450.5
1674.48	9089.27
1676.41	6279.04
1678.34	8471.09
1680.27	8962.49
1682.2	10437.8
1684.12	10742.2
1686.05	14041
1687.98	16247.6
1689.91	15326.2
1691.84	12925.9
1693.77	11090.5
1695.7	12459.9
1697.63	13775.8
1699.56	14340.4
1701.49	13244.9
1703.42	10859.3
1705.35	10148.9
1707.27	11242.3
1709.2	11687
1711.13	12942.1
1713.06	13278.2
1714.99	13143.8
1716.92	14531.8
1718.85	16611.4
1720.78	16161.5
1722.71	15561.2
1724.64	15958.9
1726.57	13132.5
1728.49	9038.29
1730.42	7116.29
1732.35	8703.09
1734.28	10230.5
1736.21	10644
1738.14	10309.8
1740.07	9632.12
1742	9687.05
1743.93	9985.74
1745.86	12255.1
1747.79	14580
1749.72	13939.8
1751.64	11424.1
1753.57	12912.1
1755.5	13582.1
1757.43	12817.4
1759.36	12745
1761.29	12442.5
1763.22	11797.3
1765.15	13120.9
1767.08	13356.6
1769.01	11990.5
1770.94	10669.9
1772.86	10732.8
1774.79	13070.9
1776.72	12049.9
1778.65	12556.4
1780.58	11650.5
1782.51	9167.95
1784.44	11127
1786.37	13612.2
1788.3	13506
1790.23	11215.1
1792.16	11699
1794.08	12919.9
1796.01	13689.9
1797.94	12260.2
1799.87	10467.5
1801.8	8744.55
1803.73	10810.5
1805.66	12336.3
1807.59	12106.2
1809.52	10850.8
1811.45	11659.2
1813.38	14336.3
1815.31	13313.4
1817.23	9627.03
1819.16	6768.41
1821.09	7437.79
1823.02	10539
1824.95	12525
1826.88	12534.3
1828.81	12124.8
1830.74	11985.8
1832.67	10174.2
1834.6	11796.9
1836.53	15114.4
1838.45	16646.5
1840.38	14874.8
1842.31	8992.53
1844.24	4355.53
1846.17	4258.88
1848.1	6861.88
1850.03	10179
1851.96	12418.4
1853.89	14113.1
1855.82	15328.8
1857.75	13391.9
1859.68	10704.9
1861.6	7874.38
1863.53	7300.91
1865.46	8436.47
1867.39	7720.74
1869.32	5279.95
1871.25	4555.32
1873.18	7989.16
1875.11	8343.71
1877.04	8433.41
1878.97	10703.8
1880.9	12896.3
1882.82	13175.1
1884.75	11311.3
1886.68	8320.08
1888.61	6058.62
1890.54	5032.17
1892.47	7344.98
1894.4	8840.64
1896.33	10141.3
1898.26	12182.2
1900.19	11547.3
1902.12	8961.52
1904.05	7530.28
1905.97	10212.4
1907.9	13036.3
1909.83	14010.5
1911.76	11801.7
1913.69	9767.62
1915.62	7396.97
1917.55	7944.69
1919.48	8414.93
1921.41	7865.16
1923.34	9003.34
1925.27	12524.1
1927.19	15443.7
1929.12	13953.5
1931.05	12649.5
1932.98	12641
1934.91	13566.2
1936.84	11434.4
1938.77	8750.34
1940.7	10534.7
1942.63	14324.6
1944.56	14956.3
1946.49	12065.2
1948.41	9435.97
1950.34	10189.2
1952.27	10235.7
1954.2	9170.78
1956.13	8903.48
1958.06	10841.9
1959.99	15427.1
1961.92	16574.7
1963.85	14849.1
1965.78	12769.3
1967.71	10782.6
1969.64	10579.5
1971.56	10384.8
1973.49	10072.5
1975.42	10691.1
1977.35	10734.8
1979.28	10569.9
1981.21	11790.8
1983.14	12227.2
1985.07	13769.9
1987	13305.7
1988.93	11282.9
1990.86	11582.4
1992.78	13865.6
1994.71	15953.6
1996.64	14768.2
1998.57	14779.3
2000.5	15856.9
2002.43	14706.7
2004.36	13287
2006.29	10726.1
2008.22	8012.84
2010.15	10153.5
2012.08	11231.4
2014.01	8436.42
2015.93	10148.2
2017.86	11083.2
2019.79	10262
2021.72	9177.94
2023.65	9601.12
2025.58	11545.2
2027.51	15269.1
2029.44	18120.1
2031.37	17457.4
2033.3	16177.5
2035.23	15557.9
2037.15	13182.5
2039.08	11564.3
2041.01	11611.6
2042.94	14546.1
2044.87	14473.8
2046.8	14860.3
2048.73	19701.9
2050.66	22584.1
2052.59	21253.1
2054.52	14888.3
2056.45	7159.91
2058.37	8873.54
2060.3	10250.6
2062.23	13448.2
2064.16	16005.5
2066.09	15598.8
2068.02	15282.4
2069.95	12926
2071.88	12866.6
2073.81	15614.9
2075.74	19599.8
2077.67	20752.8
2079.6	18063.5
2081.52	13706.8
2083.45	12063.7
2085.38	12899.4
2087.31	13219.1
2089.24	13547
2091.17	11553.8
2093.1	8779.34
2095.03	6866.09
2096.96	13057.2
2098.89	16371.4
2100.82	19738.9
2102.74	24256.7
2104.67	33499.6
2106.6	42157.4
2108.53	50791.3
2110.46	61121.9
2112.39	73989.7
2114.32	89161.6
2116.25	106216
2118.18	125080
2120.11	146117
2122.04	169843
2123.97	195999
2125.89	222847
2127.82	248306
2129.75	272139
2131.68	296186
2133.61	322081
2135.54	349591
2137.47	377680
2139.4	406096
2141.33	434959
2143.26	463605
2145.19	491086
2147.11	517511
2149.04	543838
2150.97	570534
2152.9	597335
2154.83	623957
2156.76	649880
2158.69	673627
2160.62	693795
2162.55	711307
2164.48	729348
2166.41	750151
2168.33	772443
2170.26	792739
2172.19	808578
2174.12	819869
2176.05	827861
2177.98	833847
2179.91	838579
2181.84	841920
2183.77	843096
2185.7	842052
2187.63	840328
2189.56	839495
2191.48	838663
2193.41	834866
2195.34	826562
2197.27	815699
2199.2	805271
2201.13	795567
2203.06	784224
2204.99	769887
2206.92	754401
2208.85	740638
2210.78	728904
2212.7	716519
2214.63	700938
2216.56	682522
2218.49	663805
2220.42	646615
2222.35	630794
2224.28	615760
2226.21	602048
2228.14	590247
2230.07	579073
2232	566148
2233.93	551015
2235.85	536078
2237.78	523811
2239.71	514046
2241.64	504943
2243.57	495763
2245.5	487366
2247.43	480399
2249.36	474523
2251.29	469741
2253.22	467274
2255.15	468184
2257.07	471546
2259	474855
2260.93	476645
2262.86	478408
2264.79	483269
2266.72	492374
2268.65	503176
2270.58	512120
2272.51	518804
2274.44	526375
2276.37	537797
2278.29	553109
2280.22	570821
2282.15	590349
2284.08	611668
2286.01	633498
2287.94	653559
2289.87	670779
2291.8	686447
2293.73	703168
2295.66	722939
2297.59	745528
2299.52	768012
2301.44	786541
2303.37	799514
2305.3	808910
2307.23	817949
2309.16	827753
2311.09	836572
2313.02	841678
2314.95	841602
2316.88	837221
2318.81	831255
2320.74	826378
2322.66	823601
2324.59	822675
2326.52	823364
2328.45	825636
2330.38	829952
2332.31	838732
2334.24	855005
2336.17	876711
2338.1	896760
2340.03	916892
2341.96	958912
2343.89	1.04671e+006
2345.81	1.16785e+006
2347.74	1.26376e+006
2349.67	1.27455e+006
2351.6	1.19539e+006
2353.53	1.0796e+006
2355.46	987143
2357.39	940568
2359.32	930272
2361.25	944930
2363.18	984056
2365.11	1.04936e+006
2367.03	1.13936e+006
2368.96	1.25441e+006
2370.89	1.39869e+006
2372.82	1.57409e+006
2374.75	1.77607e+006
2376.68	1.99555e+006
2378.61	2.22029e+006
2380.54	2.43359e+006
2382.47	2.61723e+006
2384.4	2.7601e+006
2386.33	2.86365e+006
2388.26	2.9382e+006
2390.18	2.99499e+006
2392.11	3.04184e+006
2394.04	3.08336e+006
2395.97	3.12258e+006
2397.9	3.16168e+006
2399.83	3.20163e+006
2401.76	3.24184e+006
2403.69	3.28107e+006
2405.62	3.31934e+006
2407.55	3.35823e+006
2409.48	3.39881e+006
2411.4	3.44033e+006
2413.33	3.48207e+006
2415.26	3.52522e+006
2417.19	3.57153e+006
2419.12	3.62078e+006
2421.05	3.6712e+006
2422.98	3.72172e+006
2424.91	3.77225e+006
2426.84	3.82254e+006
2428.77	3.87238e+006
2430.7	3.92276e+006
2432.62	3.97473e+006
2434.55	4.02741e+006
2436.48	4.07906e+006
2438.41	4.12997e+006
2440.34	4.18233e+006
2442.27	4.23697e+006
2444.2	4.2924e+006
2446.13	4.34758e+006
2448.06	4.40345e+006
2449.99	4.4605e+006
2451.92	4.51686e+006
2453.85	4.57037e+006
2455.77	4.62165e+006
2457.7	4.67325e+006
2459.63	4.72633e+006
2461.56	4.7796e+006
2463.49	4.83149e+006
2465.42	4.88192e+006
2467.35	4.93187e+006
2469.28	4.98193e+006
2471.21	5.03169e+006
2473.14	5.08027e+006
2475.07	5.12744e+006
2476.99	5.174e+006
2478.92	5.2207e+006
2480.85	5.26647e+006
2482.78	5.3086e+006
2484.71	5.34523e+006
2486.64	5.37729e+006
2488.57	5.40757e+006
2490.5	5.43849e+006
2492.43	5.471e+006
2494.36	5.50484e+006
2496.29	5.53879e+006
2498.22	5.5709e+006
2500.14	5.59962e+006
2502.07	5.62495e+006
2504	5.6482e+006
2505.93	5.6708e+006
2507.86	5.69349e+006
2509.79	5.7162e+006
2511.72	5.73807e+006
2513.65	5.75772e+006
2515.58	5.77423e+006
2517.51	5.78779e+006
2519.44	5.79927e+006
2521.36	5.80969e+006
2523.29	5.82041e+006
2525.22	5.83265e+006
2527.15	5.84577e+006
2529.08	5.8569e+006
2531.01	5.86374e+006
2532.94	5.86749e+006
2534.87	5.87143e+006
2536.8	5.87701e+006
2538.73	5.88297e+006
2540.66	5.88838e+006
2542.58	5.89419e+006
2544.51	5.90084e+006
2546.44	5.90649e+006
2548.37	5.90915e+006
2550.3	5.90958e+006
2552.23	5.91037e+006
2554.16	5.91268e+006
2556.09	5.91541e+006
2558.02	5.91728e+006
2559.95	5.91822e+006
2561.88	5.91854e+006
2563.81	5.91815e+006
2565.73	5.91699e+006
2567.66	5.91559e+006
2569.59	5.91446e+006
2571.52	5.91335e+006
2573.45	5.9115e+006
2575.38	5.90863e+006
2577.31	5.90557e+006
2579.24	5.90353e+006
2581.17	5.90253e+006
2583.1	5.90078e+006
2585.03	5.89627e+006
2586.95	5.8892e+006
2588.88	5.88195e+006
2590.81	5.8764e+006
2592.74	5.87217e+006
2594.67	5.86789e+006
2596.6	5.86299e+006
2598.53	5.85711e+006
2600.46	5.84905e+006
2602.39	5.83808e+006
2604.32	5.8261e+006
2606.25	5.81635e+006
2608.18	5.80973e+006
2610.1	5.80381e+006
2612.03	5.79594e+006
2613.96	5.78589e+006
2615.89	5.77486e+006
2617.82	5.76342e+006
2619.75	5.75152e+006
2621.68	5.73976e+006
2623.61	5.72901e+006
2625.54	5.71912e+006
2627.47	5.70915e+006
2629.4	5.69859e+006
2631.32	5.68784e+006
2633.25	5.67743e+006
2635.18	5.66759e+006
2637.11	5.65821e+006
2639.04	5.6487e+006
2640.97	5.63848e+006
2642.9	5.62854e+006
2644.83	5.62202e+006
2646.76	5.62151e+006
2648.69	5.62571e+006
2650.62	5.63006e+006
2652.54	5.63156e+006
2654.47	5.63145e+006
2656.4	5.63268e+006
2658.33	5.6359e+006
2660.26	5.6398e+006
2662.19	5.64407e+006
2664.12	5.65019e+006
2666.05	5.65882e+006
2667.98	5.66843e+006
2669.91	5.67732e+006
2671.84	5.68602e+006
2673.77	5.69658e+006
2675.69	5.71042e+006
2677.62	5.72775e+006
2679.55	5.74862e+006
2681.48	5.77305e+006
2683.41	5.79995e+006
2685.34	5.82709e+006
2687.27	5.85284e+006
2689.2	5.87769e+006
2691.13	5.90362e+006
2693.06	5.93219e+006
2694.99	5.9637e+006
2696.91	5.99758e+006
2698.84	6.03289e+006
2700.77	6.06838e+006
2702.7	6.10301e+006
2704.63	6.13678e+006
2706.56	6.17077e+006
2708.49	6.2058e+006
2710.42	6.24132e+006
2712.35	6.27621e+006
2714.28	6.31055e+006
2716.21	6.34572e+006
2718.14	6.38285e+006
2720.06	6.42173e+006
2721.99	6.46144e+006
2723.92	6.50097e+006
2725.85	6.53888e+006
2727.78	6.57356e+006
2729.71	6.60513e+006
2731.64	6.6362e+006
2733.57	6.66927e+006
2735.5	6.70329e+006
2737.43	6.73433e+006
2739.36	6.7604e+006
2741.28	6.78417e+006
2743.21	6.81023e+006
2745.14	6.84026e+006
2747.07	6.87167e+006
2749	6.90048e+006
2750.93	6.92465e+006
2752.86	6.94494e+006
2754.79	6.96353e+006
2756.72	6.98206e+006
2758.65	7.00076e+006
2760.58	7.01909e+006
2762.51	7.0368e+006
2764.43	7.0539e+006
2766.36	7.0698e+006
2768.29	7.08374e+006
2770.22	7.09627e+006
2772.15	7.10922e+006
2774.08	7.12314e+006
2776.01	7.13596e+006
2777.94	7.14542e+006
2779.87	7.1523e+006
2781.8	7.15992e+006
2783.73	7.17036e+006
2785.65	7.18267e+006
2787.58	7.19466e+006
2789.51	7.20505e+006
2791.44	7.2135e+006
2793.37	7.2199e+006
2795.3	7.22496e+006
2797.23	7.23052e+006
2799.16	7.23836e+006
2801.09	7.24868e+006
2803.02	7.26017e+006
2804.95	7.27144e+006
2806.87	7.28158e+006
2808.8	7.29e+006
2810.73	7.29646e+006
2812.66	7.3017e+006
2814.59	7.30735e+006
2816.52	7.31453e+006
2818.45	7.32285e+006
2820.38	7.33108e+006
2822.31	7.33894e+006
2824.24	7.34774e+006
2826.17	7.35876e+006
2828.1	7.37082e+006
2830.02	7.38044e+006
2831.95	7.38496e+006
2833.88	7.3855e+006
2835.81	7.38579e+006
2837.74	7.38747e+006
2839.67	7.38715e+006
2841.6	7.37914e+006
2843.53	7.36125e+006
2845.46	7.33783e+006
2847.39	7.3175e+006
2849.32	7.30803e+006
2851.24	7.31266e+006
2853.17	7.3291e+006
2855.1	7.35125e+006
2857.03	7.37287e+006
2858.96	7.39143e+006
2860.89	7.40861e+006
2862.82	7.42639e+006
2864.75	7.44323e+006
2866.68	7.45562e+006
2868.61	7.46294e+006
2870.54	7.46871e+006
2872.47	7.47608e+006
2874.39	7.48402e+006
2876.32	7.48965e+006
2878.25	7.49244e+006
2880.18	7.49367e+006
2882.11	7.4928e+006
2884.04	7.48761e+006
2885.97	7.4786e+006
2887.9	7.4699e+006
2889.83	7.46414e+006
2891.76	7.45854e+006
2893.69	7.44832e+006
2895.61	7.43268e+006
2897.54	7.41499e+006
2899.47	7.39785e+006
2901.4	7.38057e+006
2903.33	7.36188e+006
2905.26	7.34203e+006
2907.19	7.32042e+006
2909.12	7.29303e+006
2911.05	7.25537e+006
2912.98	7.20869e+006
2914.91	7.16161e+006
2916.83	7.12419e+006
2918.76	7.10041e+006
2920.69	7.08679e+006
2922.62	7.0776e+006
2924.55	7.07036e+006
2926.48	7.0664e+006
2928.41	7.06764e+006
2930.34	7.07414e+006
2932.27	7.08439e+006
2934.2	7.09655e+006
2936.13	7.10883e+006
2938.06	7.11929e+006
2939.98	7.12616e+006
2941.91	7.12868e+006
2943.84	7.12734e+006
2945.77	7.12285e+006
2947.7	7.11499e+006
2949.63	7.10249e+006
2951.56	7.08469e+006
2953.49	7.06322e+006
2955.42	7.04163e+006
2957.35	7.02302e+006
2959.28	7.00822e+006
2961.2	6.99667e+006
2963.13	6.98836e+006
2965.06	6.98376e+006
2966.99	6.98162e+006
2968.92	6.97814e+006
2970.85	6.9696e+006
2972.78	6.95607e+006
2974.71	6.94153e+006
2976.64	6.9297e+006
2978.57	6.91993e+006
2980.5	6.90786e+006
2982.43	6.8902e+006
2984.35	6.86808e+006
2986.28	6.84498e+006
2988.21	6.82258e+006
2990.14	6.80005e+006
2992.07	6.77752e+006
2994	6.75776e+006
2995.93	6.74278e+006
2997.86	6.72977e+006
2999.79	6.71327e+006
3001.72	6.69166e+006
3003.65	6.66924e+006
3005.57	6.6503e+006
3007.5	6.63337e+006
3009.43	6.61415e+006
3011.36	6.59318e+006
3013.29	6.57644e+006
3015.22	6.56702e+006
3017.15	6.55984e+006
3019.08	6.54765e+006
3021.01	6.52977e+006
3022.94	6.51045e+006
3024.87	6.49019e+006
3026.79	6.4648e+006
3028.72	6.43455e+006
3030.65	6.4084e+006
3032.58	6.39479e+006
3034.51	6.39118e+006
3036.44	6.38685e+006
3038.37	6.37387e+006
3040.3	6.35137e+006
3042.23	6.32173e+006
3044.16	6.28838e+006
3046.09	6.25652e+006
3048.02	6.22961e+006
3049.94	6.20405e+006
3051.87	6.17252e+006
3053.8	6.13474e+006
3055.73	6.09944e+006
3057.66	6.07245e+006
3059.59	6.04782e+006
3061.52	6.01613e+006
3063.45	5.97892e+006
3065.38	5.94856e+006
3067.31	5.93377e+006
3069.24	5.92934e+006
3071.16	5.92126e+006
3073.09	5.89911e+006
3075.02	5.8629e+006
3076.95	5.82107e+006
3078.88	5.78382e+006
3080.81	5.75681e+006
3082.74	5.73864e+006
3084.67	5.7234e+006
3086.6	5.70533e+006
3088.53	5.68141e+006
3090.46	5.65089e+006
3092.39	5.61439e+006
3094.31	5.57399e+006
3096.24	5.53347e+006
3098.17	5.49744e+006
3100.1	5.46964e+006
3102.03	5.45073e+006
3103.96	5.43704e+006
3105.89	5.42204e+006
3107.82	5.40019e+006
3109.75	5.36981e+006
3111.68	5.33308e+006
3113.61	5.29426e+006
3115.53	5.25768e+006
3117.46	5.22583e+006
3119.39	5.19838e+006
3121.32	5.174e+006
3123.25	5.1529e+006
3125.18	5.1355e+006
3127.11	5.11873e+006
3129.04	5.09691e+006
3130.97	5.06857e+006
3132.9	5.03963e+006
3134.83	5.01644e+006
3136.75	4.99735e+006
3138.68	4.97524e+006
3140.61	4.94749e+006
3142.54	4.91907e+006
3144.47	4.89483e+006
3146.4	4.87316e+006
3148.33	4.8496e+006
3150.26	4.82352e+006
3152.19	4.79784e+006
3154.12	4.77385e+006
3156.05	4.75034e+006
3157.98	4.7273e+006
3159.9	4.70716e+006
3161.83	4.6913e+006
3163.76	4.67804e+006
3165.69	4.66563e+006
3167.62	4.65504e+006
3169.55	4.64769e+006
3171.48	4.64163e+006
3173.41	4.63329e+006
3175.34	4.62313e+006
3177.27	4.61687e+006
3179.2	4.61941e+006
3181.12	4.62904e+006
3183.05	4.63982e+006
3184.98	4.64824e+006
3186.91	4.65468e+006
3188.84	4.65844e+006
3190.77	4.65527e+006
3192.7	4.64241e+006
3194.63	4.62456e+006
3196.56	4.61172e+006
3198.49	4.61048e+006
3200.42	4.61852e+006
3202.35	4.62743e+006
3204.27	4.62988e+006
3206.2	4.62448e+006
3208.13	4.61583e+006
3210.06	4.61047e+006
3211.99	4.61141e+006
3213.92	4.61555e+006
3215.85	4.61702e+006
3217.78	4.61326e+006
3219.71	4.60661e+006
3221.64	4.59944e+006
3223.57	4.58977e+006
3225.49	4.57339e+006
3227.42	4.5496e+006
3229.35	4.52265e+006
3231.28	4.4973e+006
3233.21	4.4743e+006
3235.14	4.4507e+006
3237.07	4.4235e+006
3239	4.39231e+006
3240.93	4.35937e+006
3242.86	4.32789e+006
3244.79	4.2997e+006
3246.72	4.27355e+006
3248.64	4.24599e+006
3250.57	4.21468e+006
3252.5	4.18129e+006
3254.43	4.15043e+006
3256.36	4.12526e+006
3258.29	4.10421e+006
3260.22	4.08268e+006
3262.15	4.05796e+006
3264.08	4.03147e+006
3266.01	4.00554e+006
3267.94	3.97917e+006
3269.86	3.94957e+006
3271.79	3.91805e+006
3273.72	3.89188e+006
3275.65	3.87777e+006
3277.58	3.87452e+006
3279.51	3.87453e+006
3281.44	3.87189e+006
3283.37	3.8666e+006
3285.3	3.8608e+006
3287.23	3.85439e+006
3289.16	3.84651e+006
3291.08	3.83916e+006
3293.01	3.83635e+006
3294.94	3.83964e+006
3296.87	3.84669e+006
3298.8	3.85402e+006
3300.73	3.85945e+006
3302.66	3.86206e+006
3304.59	3.86224e+006
3306.52	3.86333e+006
3308.45	3.87149e+006
3310.38	3.89151e+006
3312.31	3.92278e+006
3314.23	3.96058e+006
3316.16	4.00122e+006
3318.09	4.04418e+006
3320.02	4.0896e+006
3321.95	4.13633e+006
3323.88	4.18394e+006
3325.81	4.23411e+006
3327.74	4.28719e+006
3329.67	4.3384e+006
3331.6	4.38117e+006
3333.53	4.41456e+006
3335.45	4.44349e+006
3337.38	4.46921e+006
3339.31	4.48251e+006
3341.24	4.47051e+006
3343.17	4.43026e+006
3345.1	4.37309e+006
3347.03	4.31512e+006
3348.96	4.26529e+006
3350.89	4.22273e+006
3352.82	4.18309e+006
3354.75	4.14466e+006
3356.68	4.10844e+006
3358.6	4.0742e+006
3360.53	4.03878e+006
3362.46	3.99906e+006
3364.39	3.95549e+006
3366.32	3.9106e+006
3368.25	3.86424e+006
3370.18	3.81344e+006
3372.11	3.75825e+006
3374.04	3.70451e+006
3375.97	3.65813e+006
3377.9	3.61874e+006
3379.82	3.58305e+006
3381.75	3.55316e+006
3383.68	3.53643e+006
3385.61	3.53628e+006
3387.54	3.54809e+006
3389.47	3.56728e+006
3391.4	3.59791e+006
3393.33	3.64891e+006
3395.26	3.72273e+006
3397.19	3.81149e+006
3399.12	3.90466e+006
3401.04	3.99668e+006
3402.97	4.08531e+006
3404.9	4.1659e+006
3406.83	4.23177e+006
3408.76	4.28013e+006
3410.69	4.31273e+006
3412.62	4.32794e+006
3414.55	4.31626e+006
3416.48	4.2707e+006
3418.41	4.20222e+006
3420.34	4.13751e+006
3422.27	4.09596e+006
3424.19	4.07188e+006
3426.12	4.04464e+006
3428.05	4.00357e+006
3429.98	3.95608e+006
3431.91	3.91292e+006
3433.84	3.87481e+006
3435.77	3.83644e+006
3437.7	3.79487e+006
3439.63	3.74828e+006
3441.56	3.69394e+006
3443.49	3.63641e+006
3445.41	3.59329e+006
3447.34	3.58066e+006
3449.27	3.59118e+006
3451.2	3.5958e+006
3453.13	3.57103e+006
3455.06	3.51854e+006
3456.99	3.4556e+006
3458.92	3.39505e+006
3460.85	3.34086e+006
3462.78	3.29568e+006
3464.71	3.26155e+006
3466.64	3.23377e+006
3468.56	3.20273e+006
3470.49	3.16357e+006
3472.42	3.11869e+006
3474.35	3.07003e+006
3476.28	3.01522e+006
3478.21	2.95413e+006
3480.14	2.89447e+006
3482.07	2.84685e+006
3484	2.8155e+006
3485.93	2.79536e+006
3487.86	2.77684e+006
3489.78	2.75284e+006
3491.71	2.72255e+006
3493.64	2.68793e+006
3495.57	2.64564e+006
3497.5	2.58723e+006
3499.43	2.51289e+006
3501.36	2.44084e+006
3503.29	2.39304e+006
3505.22	2.371e+006
3507.15	2.35596e+006
3509.08	2.33486e+006
3511	2.31417e+006
3512.93	2.30188e+006
3514.86	2.28718e+006
3516.79	2.24969e+006
3518.72	2.1827e+006
3520.65	2.09804e+006
3522.58	2.01382e+006
3524.51	1.94737e+006
3526.44	1.913e+006
3528.37	1.9108e+006
3530.3	1.91883e+006
3532.23	1.91087e+006
3534.15	1.88314e+006
3536.08	1.85049e+006
3538.01	1.81577e+006
3539.94	1.76085e+006
3541.87	1.67643e+006
3543.8	1.58535e+006
3545.73	1.52189e+006
3547.66	1.49501e+006
3549.59	1.48461e+006
3551.52	1.46981e+006
3553.45	1.44783e+006
3555.37	1.42404e+006
3557.3	1.3937e+006
3559.23	1.33921e+006
3561.16	1.24621e+006
3563.09	1.12589e+006
3565.02	1.02223e+006
3566.95	985259
3568.88	1.02422e+006
3570.81	1.09063e+006
3572.74	1.12139e+006
3574.67	1.09897e+006
3576.6	1.05678e+006
3578.52	1.02523e+006
3580.45	992002
3582.38	928154
3584.31	838914
3586.24	766350
3588.17	741253
3590.1	749589
3592.03	753736
3593.96	735518
3595.89	708223
3597.82	692051
3599.74	688643
3601.67	680671
3603.6	650559
3605.53	598164
3607.46	542575
3609.39	505447
3611.32	489852
3613.25	478364
3615.18	456427
3617.11	433150
3619.04	429010
3620.97	443179
3622.89	446301
3624.82	414344
3626.75	361665
3628.68	328432
3630.61	336614
3632.54	369036
3634.47	393487
3636.4	396578
3638.33	386562
3640.26	370500
3642.19	342129
3644.11	295756
3646.04	243640
3647.97	210513
3649.9	210094
3651.83	232003
3653.76	254303
3655.69	265595
3657.62	270764
3659.55	276939
3661.48	280503
3663.41	271539
3665.33	247565
3667.26	217600
3669.19	192584
3671.12	176179
3673.05	167115
3674.98	167046
3676.91	180689
3678.84	206882
3680.77	233277
3682.7	244254
3684.63	235080
3686.56	217087
3688.48	208823
3690.41	222284
3692.34	254949
3694.27	291694
3696.2	316246
3698.13	326214
3700.06	336686
3701.99	362541
3703.92	396818
3705.85	416546
3707.78	415486
3709.7	421260
3711.63	468360
3713.56	557564
3715.49	652191
3717.42	713638
3719.35	733820
3721.28	736414
3723.21	754403
3725.14	800452
3727.07	847600
3729	846472
3730.93	780624
3732.85	701503
3734.78	683595
3736.71	739417
3738.64	803345
3740.57	810053
3742.5	763650
3744.43	712796
3746.36	685979
3748.29	683035
3750.22	710596
3752.15	781643
3754.07	879179
3756	959086
3757.93	1.00087e+006
3759.86	1.02599e+006
3761.79	1.05322e+006
3763.72	1.06664e+006
3765.65	1.05095e+006
3767.58	1.03342e+006
3769.51	1.0568e+006
3771.44	1.11859e+006
3773.37	1.1678e+006
3775.29	1.16568e+006
3777.22	1.12731e+006
3779.15	1.09634e+006
3781.08	1.09653e+006
3783.01	1.11936e+006
3784.94	1.14658e+006
3786.87	1.16858e+006
3788.8	1.18049e+006
3790.73	1.17206e+006
3792.66	1.13089e+006
3794.59	1.0573e+006
3796.52	971621
3798.44	901863
3800.37	864415
3802.3	860439
3804.23	887554
3806.16	942982
3808.09	1.01007e+006
3810.02	1.05293e+006
3811.95	1.03859e+006
3813.88	966812
3815.81	873707
3817.74	806318
3819.66	793999
3821.59	835568
3823.52	903507
3825.45	960882
3827.38	982466
3829.31	964820
3831.24	918979
3833.17	859209
3835.1	801458
3837.03	765682
3838.96	770716
3840.89	823550
3842.81	909330
3844.74	985322
3846.67	992925
3848.6	902426
3850.53	760252
3852.46	670804
3854.39	702968
3856.32	818019
3858.25	911594
3860.18	923516
3862.11	882063
3864.03	842806
3865.96	821055
3867.89	803413
3869.82	795882
3871.75	823071
3873.68	883638
3875.61	936980
3877.54	945303
3879.47	914262
3881.4	881873
3883.33	875611
3885.25	890772
3887.18	908327
3889.11	922523
3891.04	942262
3892.97	966834
3894.9	971992
3896.83	932271
3898.76	857367
3900.69	795990
3902.62	796965
3904.55	868383
3906.48	974280
3908.4	1.06379e+006
3910.33	1.10238e+006
3912.26	1.08717e+006
3914.19	1.04355e+006
3916.12	1.00498e+006
3918.05	988721
3919.98	989864
3921.91	997007
3923.84	1.00546e+006
3925.77	1.01243e+006
3927.7	1.01171e+006
3929.62	1.00398e+006
3931.55	1.00441e+006
3933.48	1.02571e+006
3935.41	1.05691e+006
3937.34	1.07251e+006
3939.27	1.06337e+006
3941.2	1.04568e+006
3943.13	1.03731e+006
3945.06	1.03837e+006
3946.99	1.04116e+006
3948.92	1.04719e+006
3950.85	1.06293e+006
3952.77	1.08453e+006
3954.7	1.09856e+006
3956.63	1.09795e+006
3958.56	1.08954e+006
3960.49	1.08476e+006
3962.42	1.08824e+006
3964.35	1.09674e+006
3966.28	1.10458e+006
3968.21	1.10756e+006
3970.14	1.10463e+006
3972.07	1.09872e+006
3973.99	1.0951e+006
3975.92	1.09694e+006
3977.85	1.10279e+006
3979.78	1.10874e+006
3981.71	1.11261e+006
3983.64	1.11471e+006
3985.57	1.11552e+006
3987.5	1.11448e+006
3989.43	1.11162e+006
3991.36	1.109e+006
3993.29	1.10927e+006
3995.22	1.11305e+006
3997.14	1.11864e+006
3999.07	1.1235e+006
4001	1.12514e+006
4002.93	1.12166e+006
4004.86	1.11369e+006
4006.79	1.10567e+006
4008.72	1.10265e+006
4010.65	1.10489e+006
4012.58	1.10774e+006
4014.51	1.1079e+006
4016.44	1.10747e+006
4018.36	1.10987e+006
4020.29	1.11427e+006
4022.22	1.11703e+006
4024.15	1.11715e+006
4026.08	1.11688e+006
4028.01	1.1173e+006
4029.94	1.11692e+006
4031.87	1.11529e+006
4033.8	1.11456e+006
4035.73	1.11566e+006
4037.66	1.11575e+006
4039.58	1.11169e+006
4041.51	1.10494e+006
4043.44	1.10023e+006
4045.37	1.10014e+006
4047.3	1.10281e+006
4049.23	1.10495e+006
4051.16	1.1052e+006
4053.09	1.1041e+006
4055.02	1.10254e+006
4056.95	1.10131e+006
4058.88	1.10113e+006
4060.81	1.10233e+006
4062.73	1.10444e+006
4064.66	1.10685e+006
4066.59	1.10934e+006
4068.52	1.1116e+006
4070.45	1.11254e+006
4072.38	1.11115e+006
4074.31	1.10798e+006
4076.24	1.1052e+006
4078.17	1.10471e+006
4080.1	1.10649e+006
4082.03	1.10868e+006
4083.95	1.10931e+006
4085.88	1.1079e+006
4087.81	1.106e+006
4089.74	1.10603e+006
4091.67	1.10888e+006
4093.6	1.11257e+006
4095.53	1.11393e+006
4097.46	1.11192e+006
4099.39	1.10843e+006
4101.32	1.1056e+006
4103.25	1.1034e+006
4105.18	1.10082e+006
4107.1	1.09822e+006
4109.03	1.09701e+006
4110.96	1.09743e+006
4112.89	1.09851e+006
4114.82	1.10002e+006
4116.75	1.10258e+006
4118.68	1.1055e+006
4120.61	1.10629e+006
4122.54	1.10369e+006
4124.47	1.09983e+006
4126.4	1.09799e+006
4128.32	1.0986e+006
4130.25	1.09896e+006
4132.18	1.09694e+006
4134.11	1.0935e+006
4136.04	1.09126e+006
4137.97	1.09142e+006
4139.9	1.09278e+006
4141.83	1.09346e+006
4143.76	1.09276e+006
4145.69	1.09132e+006
4147.62	1.08983e+006
4149.54	1.08843e+006
4151.47	1.08742e+006
4153.4	1.08778e+006
4155.33	1.09022e+006
4157.26	1.09369e+006
4159.19	1.09586e+006
4161.12	1.09541e+006
4163.05	1.09315e+006
4164.98	1.09074e+006
4166.91	1.08905e+006
4168.84	1.08824e+006
4170.77	1.08844e+006
4172.69	1.08931e+006
4174.62	1.08932e+006
4176.55	1.08687e+006
4178.48	1.08248e+006
4180.41	1.07894e+006
4182.34	1.07861e+006
4184.27	1.08089e+006
4186.2	1.08284e+006
4188.13	1.08231e+006
4190.06	1.07982e+006
4191.99	1.07737e+006
4193.91	1.07609e+006
4195.84	1.07581e+006
4197.77	1.07619e+006
4199.7	1.07709e+006
4201.63	1.07768e+006
4203.56	1.07652e+006
4205.49	1.07359e+006
4207.42	1.07118e+006
4209.35	1.07148e+006
4211.28	1.07377e+006
4213.21	1.07544e+006
4215.14	1.07548e+006
4217.06	1.075e+006
4218.99	1.07439e+006
4220.92	1.07214e+006
4222.85	1.0678e+006
4224.78	1.06416e+006
4226.71	1.06443e+006
4228.64	1.06809e+006
4230.57	1.07136e+006
4232.5	1.0716e+006
4234.43	1.06972e+006
4236.36	1.06799e+006
4238.28	1.06689e+006
4240.21	1.06497e+006
4242.14	1.06111e+006
4244.07	1.0563e+006
4246	1.05295e+006
4247.93	1.05263e+006
4249.86	1.05432e+006
4251.79	1.05543e+006
4253.72	1.05482e+006
4255.65	1.0541e+006
4257.58	1.05505e+006
4259.5	1.05654e+006
4261.43	1.0554e+006
4263.36	1.05067e+006
4265.29	1.04545e+006
4267.22	1.04347e+006
4269.15	1.04461e+006
4271.08	1.0453e+006
4273.01	1.0432e+006
4274.94	1.04011e+006
4276.87	1.03932e+006
4278.8	1.04082e+006
4280.73	1.04081e+006
4282.65	1.03621e+006
4284.58	1.02866e+006
4286.51	1.02293e+006
4288.44	1.02193e+006
4290.37	1.02437e+006
4292.3	1.02701e+006
4294.23	1.02777e+006
4296.16	1.02636e+006
4298.09	1.02361e+006
4300.02	1.02126e+006
4301.95	1.02127e+006
4303.87	1.02379e+006
4305.8	1.02632e+006
4307.73	1.02597e+006
4309.66	1.02266e+006
4311.59	1.01885e+006
4313.52	1.01626e+006
4315.45	1.01437e+006
4317.38	1.0123e+006
4319.31	1.01076e+006
4321.24	1.01096e+006
4323.17	1.01231e+006
4325.1	1.01249e+006
4327.02	1.01004e+006
4328.95	1.0065e+006
4330.88	1.00536e+006
4332.81	1.00867e+006
4334.74	1.01425e+006
4336.67	1.01706e+006
4338.6	1.01388e+006
4340.53	1.00666e+006
4342.46	1.0002e+006
4344.39	996851
4346.32	995139
4348.24	993531
4350.17	993158
4352.1	995123
4354.03	997044
4355.96	995098
4357.89	989080
4359.82	982824
4361.75	979318
4363.68	977822
4365.61	976526
4367.54	975533
4369.46	975556
4371.39	975612
4373.32	974242
4375.25	971960
4377.18	970408
4379.11	969802
4381.04	969269
4382.97	969193
4384.9	970762
4386.83	972970
4388.76	972393
4390.69	966998
4392.61	958727
4394.54	951519
4396.47	947967
4398.4	948388
4400.33	951453
4402.26	954587
4404.19	955188
4406.12	953054
4408.05	950792
4409.98	950578
4411.91	951319
4413.83	950486
4415.76	947850
4417.69	945403
4419.62	943824
4421.55	941372
4423.48	937076
4425.41	933118
4427.34	932391
4429.27	934527
4431.2	935952
4433.13	933892
4435.06	929190
4436.98	924859
4438.91	922819
4440.84	922697
4442.77	923180
4444.7	923418
4446.63	923012
4448.56	921634
4450.49	919417
4452.42	917196
4454.35	915490
4456.28	913566
4458.2	910516
4460.13	907097
4462.06	905086
4463.99	904426
4465.92	902707
4467.85	898794
4469.78	895654
4471.71	897369
4473.64	903489
4475.57	908434
4477.5	907244
4479.43	900509
4481.35	892789
4483.28	887542
4485.21	884888
4487.14	883430
4489.07	882357
4491	881543
4492.93	880823
4494.86	879924
4496.79	878729
4498.72	877361
4500.65	876255
4502.57	876155
4504.5	877517
4506.43	879555
4508.36	880179
4510.29	877384
4512.22	871111
4514.15	863838
4516.08	859006
4518.01	858309
4519.94	860280
4521.87	861759
4523.79	860705
4525.72	857339
4527.65	853027
4529.58	849262
4531.51	847776
4533.44	849895
4535.37	854497
4537.3	857813
4539.23	857094
4541.16	854107
4543.09	853270
4545.02	856353
4546.94	860701
4548.87	862914
4550.8	862481
4552.73	860996
4554.66	859451
4556.59	857672
4558.52	855532
4560.45	853375
4562.38	851617
4564.31	850693
4566.24	850856
4568.16	851327
4570.09	850415
4572.02	847483
4573.95	844125
4575.88	842228
4577.81	841470
4579.74	840129
4581.67	838014
4583.6	836925
4585.53	837978
4587.46	839991
4589.39	841118
4591.31	840910
4593.24	839944
4595.17	838386
4597.1	835984
4599.03	833090
4600.96	830774
4602.89	829925
4604.82	830530
4606.75	831493
4608.68	830893
4610.61	827177
4612.53	821000
4614.46	815583
4616.39	814240
4618.32	817385
4620.25	822406
4622.18	826269
4624.11	827596
4626.04	826595
4627.97	824296
4629.9	822165
4631.83	821271
4633.75	821073
4635.68	819883
4637.61	817264
4639.54	815003
4641.47	814578
4643.4	814537
4645.33	812113
4647.26	807246
4649.19	803181
4651.12	802538
4653.05	804312
4654.98	805636
4656.9	805333
4658.83	804598
4660.76	804940
4662.69	806583
4664.62	808387
4666.55	808208
4668.48	803835
4670.41	795034
4672.34	784931
4674.27	778207
4676.2	777239
4678.12	780301
4680.05	783639
4681.98	784849
4683.91	784275
4685.84	783894
4687.77	785212
4689.7	787729
4691.63	789067
4693.56	786993
4695.49	781723
4697.42	776019
4699.35	772584
4701.27	771421
4703.2	770114
4705.13	766855
4707.06	762940
4708.99	761784
4710.92	765140
4712.85	770485
4714.78	772845
4716.71	769664
4718.64	763620
4720.57	760068
4722.49	761608
4724.42	765482
4726.35	766495
4728.28	762357
4730.21	755811
4732.14	751366
4734.07	750374
4736	750231
4737.93	748624
4739.86	747064
4741.79	748591
4743.71	752673
4745.64	754836
4747.57	752001
4749.5	746025
4751.43	740614
4753.36	736770
4755.29	733491
4757.22	731322
4759.15	731895
4761.08	734108
4763.01	734113
4764.94	730288
4766.86	725791
4768.79	724571
4770.72	726685
4772.65	729255
4774.58	730530
4776.51	730843
4778.44	730428
4780.37	728705
4782.3	725876
4784.23	723450
4786.16	722585
4788.08	722895
4790.01	723116
4791.94	722117
4793.87	719227
4795.8	714682
4797.73	710132
4799.66	707812
4801.59	708587
4803.52	711057
4805.45	712580
4807.38	710891
4809.31	705286
4811.23	697374
4813.16	690645
4815.09	688028
4817.02	689352
4818.95	691912
4820.88	693561
4822.81	694111
4824.74	693599
4826.67	691132
4828.6	686774
4830.53	683094
4832.45	682696
4834.38	684525
4836.31	684526
4838.24	680351
4840.17	673985
4842.1	669259
4844.03	668074
4845.96	669753
4847.89	672755
4849.82	675596
4851.75	676715
4853.68	675089
4855.6	671423
4857.53	667829
4859.46	665830
4861.39	665096
4863.32	664366
4865.25	663035
4867.18	661432
4869.11	660062
4871.04	659228
4872.97	659139
4874.9	659664
4876.82	659967
4878.75	659068
4880.68	656961
4882.61	654649
4884.54	652906
4886.47	651587
4888.4	650364
4890.33	649312
4892.26	648253
4894.19	646434
4896.12	643813
4898.04	641897
4899.97	641872
4901.9	642312
4903.83	640588
4905.76	636712
4907.69	633786
4909.62	633754
4911.55	634603
4913.48	633427
4915.41	630763
4917.34	629506
4919.27	630138
4921.19	629763
4923.12	626487
4925.05	622412
4926.98	620885
4928.91	622261
4930.84	624046
4932.77	624302
4934.7	623107
4936.63	621029
4938.56	618194
4940.49	615496
4942.41	615111
4944.34	618297
4946.27	623098
4948.2	625588
4950.13	623728
4952.06	619266
4953.99	615463
4955.92	613585
4957.85	612312
4959.78	610098
4961.71	607025
4963.64	604192
4965.56	602334
4967.49	601683
4969.42	602403
4971.35	604072
4973.28	605004
4975.21	603330
4977.14	599158
4979.07	594977
4981	593329
4982.93	594340
4984.86	595851
4986.78	595682
4988.71	593402
4990.64	590165
4992.57	587459
4994.5	586274
4996.43	587026
4998.36	589527
