
Integration time [ms]: 500.000
Averaging Nr. [scans]: 10
Smoothing Nr. [pixels]: 0
Data measured with spectrometer [name]: 1901096U1
Wave   ;Sample   ;Dark     ;Reference;Absolute Irradiance  ;Photon Counts
[nm]   ;[counts] ;[counts] ;[counts] ;[µWatt/cm?/nm]       ;[µMol/s/m?/nm]

 155.82;  221.390;  220.336;   69.357; 0.00000; 0.00000
 156.42;  247.222;  239.240;   98.706; 0.00000; 0.00000
 157.03;  236.324;  223.041;   92.018; 0.00000; 0.00000
 157.63;  225.017;  212.140;   78.786; 0.00000; 0.00000
 158.23;  238.116;  215.440;   94.680; 0.00000; 0.00000
 158.84;  248.137;  233.042;  119.574; 0.00000; 0.00000
 159.44;  234.010;  229.939;   82.550; 0.00000; 0.00000
 160.04;  259.101;  233.638;  102.110; 0.00000; 0.00000
 160.64;  295.608;  291.439;   93.044; 0.00000; 0.00000
 161.25;  250.626;  242.041;  112.923; 0.00000; 0.00000
 161.85;  278.516;  250.139;  109.378; 0.00000; 0.00000
 162.45;  248.600;  214.738;   90.607; 0.00000; 0.00000
 163.06;  245.508;  268.439;   94.943; 0.00000; 0.00000
 163.66;  263.030;  254.041;   96.745; 0.00000; 0.00000
 164.26;  236.081;  228.235;   70.019; 0.00000; 0.00000
 164.86;  224.387;  223.836;  112.245; 0.00000; 0.00000
 165.47;  248.833;  222.006;  144.771; 0.00000; 0.00000
 166.07;  256.221;  227.405;  171.417; 0.00000; 0.00000
 166.67;  247.515;  221.004;  157.886; 0.00000; 0.00000
 167.27;  248.227;  227.505;  165.443; 0.00000; 0.00000
 167.88;  267.314;  243.204;  176.084; 0.00000; 0.00000
 168.48;  316.499;  270.602;  149.416; 0.00000; 0.00000
 169.08;  271.510;  255.003;  149.165; 0.00000; 0.00000
 169.68;  273.445;  266.507;  196.226; 0.00000; 0.00000
 170.29;  304.899;  279.502;  174.114; 0.00000; 0.00000
 170.89;  286.013;  246.104;  182.177; 0.00000; 0.00000
 171.49;  305.511;  267.103;  158.870; 0.00000; 0.00000
 172.09;  277.816;  243.304;  197.793; 0.00000; 0.00000
 172.70;  267.585;  241.700;  178.950; 0.00000; 0.00000
 173.30;  343.399;  312.302;  192.313; 0.00000; 0.00000
 173.90;  245.672;  227.899;  149.290; 0.00000; 0.00000
 174.50;  370.385;  342.200;  169.250; 0.00000; 0.00000
 175.11;  338.595;  290.801;  178.397; 0.00000; 0.00000
 175.71;  223.023;  202.005;  163.326; 0.00000; 0.00000
 176.31;  229.119;  201.904;  157.407; 0.00000; 0.00000
 176.91;  254.891;  218.401;  166.476; 0.00000; 0.00000
 177.51;  245.682;  227.000;  169.037; 0.00000; 0.00000
 178.12;  326.290;  302.301;  189.172; 0.00000; 0.00000
 178.72;  303.109;  269.103;  188.859; 0.00000; 0.00000
 179.32;  316.393;  283.101;  182.185; 0.00000; 0.00000
 179.92;  252.392;  227.101;  182.480; 0.00000; 0.00000
 180.52;  393.823;  333.605;  194.824; 0.00000; 0.00000
 181.13;  292.872;  252.699;  169.191; 0.00000; 0.00000
 181.73;  253.201;  213.902;  204.825; 0.00000; 0.00000
 182.33;  266.472;  243.799;  191.492; 0.00000; 0.00000
 182.93;  248.479;  233.800;  210.121; 0.00000; 0.00000
 183.54;  208.356;  182.997;  146.515; 0.00000; 0.00000
 184.14;  232.503;  204.202;  159.832; 0.00000; 0.00000
 184.74;  317.302;  274.302;  211.228; 0.00000; 0.00000
 185.34;  257.525;  224.105;  232.734; 0.13663; 0.00212
 185.94;  293.175;  259.299;  205.003; 0.16762; 0.00260
 186.54;  245.506;  238.903;  234.146; 0.02961; 0.00046
 187.15;  232.090;  203.901;  218.473; 0.13584; 0.00212
 187.75;  341.832;  294.206;  238.667; 0.14363; 0.00225
 188.35;  303.175;  278.399;  236.604; 0.09743; 0.00153
 188.95;  236.314;  208.004;  223.885; 0.09276; 0.00146
 189.55;  200.882;  171.400;  204.335; 0.11208; 0.00178
 190.16;  277.486;  253.900;  250.453; 0.09112; 0.00145
 190.76;  224.469;  196.298;  231.976; 0.10013; 0.00160
 191.36;  281.776;  260.299;  258.608; 0.07404; 0.00118
 191.96;  236.603;  216.002;  282.334; 0.05555; 0.00089
 192.56;  229.077;  216.599;  277.413; 0.03543; 0.00057
 193.16;  239.867;  222.298;  299.568; 0.05413; 0.00087
 193.77;  302.846;  280.796;  305.671; 0.08009; 0.00130
 194.37;  227.094;  198.501;  293.691; 0.07524; 0.00122
 194.97;  218.177;  197.299;  303.214; 0.05358; 0.00087
 195.57;  215.514;  200.904;  323.385; 0.02744; 0.00045
 196.17;  282.143;  239.195;  329.855; 0.15767; 0.00259
 196.77;  215.180;  201.800;  362.624; 0.03271; 0.00054
 197.38;  238.376;  209.299;  385.309; 0.06810; 0.00112
 197.98;  303.557;  255.797;  391.422; 0.12900; 0.00213
 198.58;  247.502;  235.002;  441.930; 0.02541; 0.00042
 199.18;  209.896;  185.202;  429.902; 0.04964; 0.00083
 199.78;  323.346;  269.496;  456.870; 0.18530; 0.00309
 200.38;  266.984;  239.300;  499.846; 0.05819; 0.00097
 200.98;  208.793;  178.001;  502.986; 0.05424; 0.00091
 201.59;  249.151;  215.408;  611.653; 0.04307; 0.00073
 202.19;  229.427;  224.805;  605.646; 0.00668; 0.00011
 202.79;  229.885;  197.500;  587.448; 0.06308; 0.00107
 203.39;  195.693;  161.601;  644.186; 0.06406; 0.00109
 203.99;  248.407;  222.003;  740.949; 0.04033; 0.00069
 204.59;  255.498;  222.002;  733.510; 0.05587; 0.00096
 205.19;  248.072;  216.999;  796.291; 0.07088; 0.00122
 205.79;  239.001;  207.602;  825.824; 0.05187; 0.00089
 206.40;  217.495;  198.301;  875.395; 0.03258; 0.00056
 207.00;  248.905;  228.303;  907.041; 0.03246; 0.00056
 207.60;  229.995;  190.601;  928.798; 0.06472; 0.00112
 208.20;  228.929;  203.105; 1019.353; 0.03279; 0.00057
 208.80;  213.633;  193.206; 1029.973; 0.02557; 0.00045
 209.40;  234.757;  199.209; 1141.880; 0.03751; 0.00066
 210.00;  222.600;  202.402; 1124.417; 0.02873; 0.00050
 210.60;  235.912;  201.703; 1170.175; 0.04386; 0.00077
 211.20;  303.008;  273.303; 1254.557; 0.03829; 0.00068
 211.81;  179.107;  153.303; 1237.652; 0.03293; 0.00058
 212.41;  219.542;  190.407; 1355.714; 0.02847; 0.00051
 213.01;  217.264;  189.210; 1400.416; 0.02307; 0.00041
 213.61;  205.323;  172.005; 1399.523; 0.03409; 0.00061
 214.21;  201.134;  181.706; 1517.477; 0.01786; 0.00032
 214.81;  213.947;  185.208; 1599.136; 0.02357; 0.00042
 215.41;  240.032;  224.406; 1677.966; 0.01479; 0.00027
 216.01;  272.331;  255.406; 1747.260; 0.01497; 0.00027
 216.61;  262.376;  220.499; 1794.906; 0.05678; 0.00103
 217.21;  245.457;  218.909; 1900.484; 0.01824; 0.00033
 217.81;  187.669;  167.410; 1966.536; 0.01187; 0.00022
 218.41;  212.052;  187.108; 2070.058; 0.01663; 0.00030
 219.02;  198.271;  188.510; 2134.247; 0.00540; 0.00010
 219.62;  233.839;  209.407; 2229.697; 0.01617; 0.00030
 220.22;  237.639;  200.407; 2296.000; 0.02285; 0.00042
 220.82;  211.059;  178.909; 2396.090; 0.01654; 0.00031
 221.42;  223.864;  197.310; 2534.516; 0.01252; 0.00023
 222.02;  202.356;  170.809; 2602.876; 0.01491; 0.00028
 222.62;  181.154;  160.508; 2644.667; 0.00963; 0.00018
 223.22;  218.352;  179.408; 2747.058; 0.02005; 0.00037
 223.82;  195.352;  180.408; 2851.961; 0.00716; 0.00013
 224.42;  233.947;  216.608; 2979.536; 0.00771; 0.00014
 225.02;  214.552;  189.208; 3070.857; 0.01037; 0.00019
 225.62;  221.885;  170.212; 3154.212; 0.01682; 0.00032
 226.22;  209.265;  190.210; 3251.918; 0.00712; 0.00013
 226.82;  235.857;  178.409; 3374.683; 0.02363; 0.00045
 227.42;  196.423;  191.205; 3459.925; 0.00266; 0.00005
 228.02;  216.928;  208.305; 3557.146; 0.00387; 0.00007
 228.62;  176.168;  137.910; 3720.333; 0.01373; 0.00026
 229.22;  274.474;  235.611; 3822.360; 0.01218; 0.00023
 229.82;  199.297;  177.202; 3910.707; 0.01279; 0.00025
 230.43;  226.060;  202.209; 4060.498; 0.00783; 0.00015
 231.03;  208.729;  170.305; 4165.853; 0.01520; 0.00029
 231.63;  194.224;  166.305; 4299.932; 0.01095; 0.00021
 232.23;  195.437;  184.506; 4439.690; 0.00392; 0.00008
 232.83;  204.242;  186.107; 4570.914; 0.00592; 0.00012
 233.43;  236.846;  198.208; 4679.232; 0.01208; 0.00024
 234.03;  207.048;  174.508; 4822.739; 0.00930; 0.00018
 234.63;  171.666;  146.210; 4963.625; 0.00632; 0.00012
 235.23;  225.961;  189.309; 5087.302; 0.00910; 0.00018
 235.83;  192.134;  175.706; 5158.578; 0.00491; 0.00010
 236.43;  232.109;  189.403; 5238.061; 0.01467; 0.00029
 237.03;  209.232;  175.506; 5367.267; 0.00973; 0.00019
 237.63;  317.641;  255.007; 5476.106; 0.01589; 0.00032
 238.23;  196.261;  178.109; 5557.100; 0.00399; 0.00008
 238.83;  193.762;  163.509; 5587.205; 0.00678; 0.00014
 239.43;  200.925;  173.305; 5669.235; 0.00773; 0.00015
 240.03;  226.558;  188.909; 5684.486; 0.00869; 0.00017
 240.63;  194.284;  169.912; 5805.009; 0.00444; 0.00009
 241.23;  240.739;  210.407; 5803.599; 0.00733; 0.00015
 241.83;  198.757;  170.609; 5757.283; 0.00618; 0.00012
 242.43;  226.644;  188.907; 5830.420; 0.00936; 0.00019
 243.03;  209.460;  175.209; 5665.396; 0.00678; 0.00014
 243.63;  204.347;  161.208; 5769.037; 0.00885; 0.00018
 244.23;  177.322;  154.805; 5796.819; 0.00648; 0.00013
 244.83;  185.751;  150.808; 5806.754; 0.00746; 0.00015
 245.43;  226.219;  189.204; 5823.208; 0.00939; 0.00019
 246.02;  388.337;  345.506; 5800.188; 0.00956; 0.00020
 246.62;  184.022;  176.605; 5811.522; 0.00202; 0.00004
 247.22;  186.268;  152.710; 5818.533; 0.00612; 0.00013
 247.82;  226.463;  205.209; 5941.708; 0.00380; 0.00008
 248.42;  325.944;  264.607; 5924.620; 0.01252; 0.00026
 249.02;  219.953;  199.908; 5931.763; 0.00382; 0.00008
 249.62;  202.174;  169.111; 5978.860; 0.00548; 0.00011
 250.22;  264.966;  228.510; 6035.626; 0.00629; 0.00013
 250.82;  228.747;  196.608; 6063.934; 0.00633; 0.00013
 251.42;  222.779;  197.211; 6166.982; 0.00388; 0.00008
 252.02;  161.546;  148.708; 6146.432; 0.00237; 0.00005
 252.62;  200.195;  173.413; 6316.257; 0.00354; 0.00007
 253.22;  263.739;  225.507; 6362.600; 0.00713; 0.00015
 253.82;  168.170;  144.310; 6451.444; 0.00406; 0.00009
 254.42;  188.857;  168.609; 6595.581; 0.00358; 0.00008
 255.02;  224.673;  184.211; 6709.758; 0.00545; 0.00012
 255.62;  174.869;  144.710; 6866.335; 0.00435; 0.00009
 256.22;  333.939;  273.107; 6997.500; 0.01111; 0.00024
 256.82;  189.436;  163.506; 7151.784; 0.00440; 0.00009
 257.41;  172.375;  158.811; 7263.866; 0.00176; 0.00004
 258.01;  195.151;  153.908; 7368.656; 0.00611; 0.00013
 258.61;  249.768;  207.910; 7537.434; 0.00527; 0.00011
 259.21;  196.842;  158.207; 7585.914; 0.00577; 0.00012
 259.81;  234.541;  197.507; 7627.906; 0.00560; 0.00012
 260.41;  330.042;  275.007; 7729.113; 0.00790; 0.00017
 261.01;  159.783;  136.212; 7804.604; 0.00254; 0.00006
 261.61;  190.979;  159.711; 7874.186; 0.00323; 0.00007
 262.21;  171.531;  159.106; 7809.864; 0.00175; 0.00004
 262.81;  165.138;  140.007; 7883.093; 0.00329; 0.00007
 263.41;  188.675;  151.011; 7851.264; 0.00398; 0.00009
 264.00;  438.282;  360.812; 7910.396; 0.00730; 0.00016
 264.60;  207.068;  178.010; 7832.833; 0.00296; 0.00007
 265.20;  184.661;  141.709; 7811.800; 0.00468; 0.00010
 265.80;  192.059;  170.309; 7807.390; 0.00222; 0.00005
 266.40;  209.836;  171.206; 7758.985; 0.00485; 0.00011
 267.00;  248.458;  211.909; 7744.586; 0.00383; 0.00009
 267.60;  212.570;  181.510; 7713.844; 0.00278; 0.00006
 268.20;  228.368;  192.610; 7658.534; 0.00294; 0.00007
 268.80;  178.967;  134.910; 7613.828; 0.00364; 0.00008
 269.39;  236.116;  199.004; 7639.694; 0.00431; 0.00010
 269.99;  179.650;  151.208; 7545.848; 0.00240; 0.00005
 270.59;  202.558;  168.409; 7557.185; 0.00275; 0.00006
 271.19;  177.449;  153.308; 7463.747; 0.00183; 0.00004
 271.79;  218.743;  175.907; 7430.716; 0.00313; 0.00007
 272.39;  191.543;  163.307; 7390.417; 0.00185; 0.00004
 272.99;  186.017;  150.304; 7366.798; 0.00268; 0.00006
 273.59;  178.111;  146.003; 7394.867; 0.00227; 0.00005
 274.18;  207.123;  171.305; 7372.027; 0.00214; 0.00005
 274.78;  201.207;  165.703; 7463.749; 0.00216; 0.00005
 275.38;  442.067;  361.998; 7541.064; 0.00557; 0.00013
 275.98;  175.542;  158.695; 7555.049; 0.00114; 0.00003
 276.58;  188.424;  172.593; 7679.967; 0.00106; 0.00002
 277.18;  197.250;  140.996; 7761.887; 0.00272; 0.00006
 277.78;  203.409;  168.891; 7885.197; 0.00185; 0.00004
 278.37;  177.469;  144.387; 8094.415; 0.00173; 0.00004
 278.97;  201.696;  161.590; 8236.837; 0.00156; 0.00004
 279.57;  193.445;  162.284; 8401.201; 0.00128; 0.00003
 280.17;  188.239;  139.283; 8585.075; 0.00185; 0.00004
 280.77;  210.121;  170.081; 8739.990; 0.00150; 0.00004
 281.37;  199.517;  178.680; 8921.174; 0.00073; 0.00002
 281.96;  221.450;  174.472; 9108.466; 0.00189; 0.00004
 282.56;  219.774;  173.175; 9270.274; 0.00159; 0.00004
 283.16;  216.838;  179.071; 9355.810; 0.00142; 0.00003
 283.76;  173.737;  139.371; 9505.805; 0.00113; 0.00003
 284.36;  329.207;  274.567; 9628.166; 0.00197; 0.00005
 284.95;  181.952;  159.561; 9802.511; 0.00099; 0.00002
 285.55;  221.684;  171.965; 9973.057; 0.00184; 0.00004
 286.15;  216.507;  174.867;10153.664; 0.00138; 0.00003
 286.75;  229.245;  205.160;10252.877; 0.00102; 0.00002
 287.35;  181.060;  142.062;10345.749; 0.00154; 0.00004
 287.94;  155.080;  117.664;10437.340; 0.00142; 0.00003
 288.54;  192.073;  144.863;10563.308; 0.00188; 0.00005
 289.14;  176.971;  139.663;10625.296; 0.00159; 0.00004
 289.74;  179.980;  148.364;10698.339; 0.00139; 0.00003
 290.34;  187.335;  159.671;10794.693; 0.00096; 0.00002
 290.93;  181.016;  143.468;10889.406; 0.00151; 0.00004
 291.53;  188.231;  151.470;10882.075; 0.00144; 0.00004
 292.13;  183.020;  135.669;10986.727; 0.00198; 0.00005
 292.73;  216.594;  170.066;10956.902; 0.00230; 0.00006
 293.33;  165.539;  120.771;10919.612; 0.00191; 0.00005
 293.92;  175.852;  140.573;10969.773; 0.00150; 0.00004
 294.52;  165.465;  127.074;10992.032; 0.00157; 0.00004
 295.12;  178.052;  145.273;10934.672; 0.00148; 0.00004
 295.72;  164.048;  125.172;10815.554; 0.00185; 0.00005
 296.31;  226.583;  188.876;10904.618; 0.00160; 0.00004
 296.91;  242.634;  192.771;10752.392; 0.00267; 0.00007
 297.51;  209.672;  161.875;10565.563; 0.00216; 0.00005
 298.11;  415.973;  338.175;10514.872; 0.00330; 0.00008
 298.70;  182.146;  142.872;10425.745; 0.00178; 0.00004
 299.30;  157.758;  120.561;10340.539; 0.00218; 0.00005
 299.90;  201.727;  166.258;10399.297; 0.00196; 0.00005
 300.50;  233.479;  191.364;10320.936; 0.00213; 0.00005
 301.09;  168.875;  125.663;10404.916; 0.00266; 0.00007
 301.69;  196.111;  145.168;10530.383; 0.00266; 0.00007
 302.29;  171.580;  130.664;10625.238; 0.00262; 0.00007
 302.89;  168.792;  132.366;10712.996; 0.00232; 0.00006
 303.48;  224.066;  196.462;10883.577; 0.00218; 0.00006
 304.08;  168.135;  143.871;11034.496; 0.00186; 0.00005
 304.68;  187.500;  148.966;11199.933; 0.00364; 0.00009
 305.28;  187.601;  157.467;11331.138; 0.00303; 0.00008
 305.87;  155.940;  121.071;11557.216; 0.00307; 0.00008
 306.47;  177.216;  118.968;11629.007; 0.00567; 0.00015
 307.07;  190.146;  157.372;11817.946; 0.00288; 0.00007
 307.67;  195.976;  156.475;12043.183; 0.00323; 0.00008
 308.26;  174.250;  143.772;12135.263; 0.00273; 0.00007
 308.86;  211.086;  167.665;12308.970; 0.00468; 0.00012
 309.46;  173.449;  137.072;12516.957; 0.00323; 0.00008
 310.05;  180.508;  141.167;12737.271; 0.00410; 0.00011
 310.65;  206.793;  158.578;12857.363; 0.00402; 0.00010
 311.25;  220.736;  160.371;12935.298; 0.00570; 0.00015
 311.85;  219.814;  156.568;13145.596; 0.00653; 0.00017
 312.44;  189.517;  149.168;13347.612; 0.00401; 0.00010
 313.04;  179.638;  136.371;13485.708; 0.00408; 0.00011
 313.64;  187.911;  149.968;13620.981; 0.00407; 0.00011
 314.23;  212.631;  160.970;13715.076; 0.00501; 0.00013
 314.83;  463.420;  384.969;13936.025; 0.00821; 0.00022
 315.43;  186.391;  127.165;13967.090; 0.00662; 0.00017
 316.02;  220.264;  176.974;14040.930; 0.00390; 0.00010
 316.62;  188.328;  147.370;14125.363; 0.00405; 0.00011
 317.22;  199.043;  160.472;14245.032; 0.00363; 0.00010
 317.81;  178.450;  137.272;14233.762; 0.00393; 0.00010
 318.41;  193.657;  144.273;14263.897; 0.00461; 0.00012
 319.01;  189.315;  140.268;14427.401; 0.00500; 0.00013
 319.60;  214.425;  175.869;14388.747; 0.00374; 0.00010
 320.20;  157.834;  124.570;14258.389; 0.00328; 0.00009
 320.80;  175.723;  149.269;14334.539; 0.00272; 0.00007
 321.39;  173.726;  149.269;14417.251; 0.00250; 0.00007
 321.99;  173.319;  145.369;14396.221; 0.00294; 0.00008
 322.59;  241.450;  198.472;14327.565; 0.00415; 0.00011
 323.18;  190.044;  138.872;14288.034; 0.00514; 0.00014
 323.78;  191.763;  156.574;14312.623; 0.00326; 0.00009
 324.38;  163.828;  136.770;14236.162; 0.00276; 0.00007
 324.97;  169.457;  131.673;14253.394; 0.00360; 0.00010
 325.57;  192.327;  153.870;14167.559; 0.00394; 0.00011
 326.17;  213.669;  164.075;14160.352; 0.00460; 0.00013
 326.76;  200.238;  151.871;14123.806; 0.00485; 0.00013
 327.36;  221.649;  170.672;14073.860; 0.00473; 0.00013
 327.95;  164.363;  126.274;13930.123; 0.00331; 0.00009
 328.55;  172.262;  132.874;13852.519; 0.00340; 0.00009
 329.15;  419.916;  326.868;13731.407; 0.00873; 0.00024
 329.74;  160.895;  131.678;13598.370; 0.00232; 0.00006
 330.34;  182.577;  151.176;13577.890; 0.00240; 0.00007
 330.94;  201.704;  163.167;13380.550; 0.00341; 0.00009
 331.53;  167.817;  144.968;13220.110; 0.00193; 0.00005
 332.13;  147.864;  114.274;13089.027; 0.00280; 0.00008
 332.72;  316.762;  237.274;12940.220; 0.00695; 0.00019
 333.32;  161.583;  140.176;12869.816; 0.00188; 0.00005
 333.92;  163.197;  123.678;12706.579; 0.00328; 0.00009
 334.51;  155.089;  121.477;12609.342; 0.00292; 0.00008
 335.11;  184.879;  147.876;12467.899; 0.00327; 0.00009
 335.70;  154.509;  132.879;12368.236; 0.00174; 0.00005
 336.30;  207.161;  174.086;12332.478; 0.00239; 0.00007
 336.90;  195.018;  153.880;12252.377; 0.00314; 0.00009
 337.49;  148.813;  121.780;12294.456; 0.00200; 0.00006
 338.09;  196.415;  150.080;12364.864; 0.00335; 0.00009
 338.68;  224.464;  159.586;12237.490; 0.00419; 0.00012
 339.28;  183.257;  133.585;12302.356; 0.00323; 0.00009
 339.88;  198.075;  153.887;12390.342; 0.00281; 0.00008
 340.47;  222.364;  177.686;12416.990; 0.00289; 0.00008
 341.07;  206.362;  169.486;12531.981; 0.00234; 0.00007
 341.66;  143.278;  109.888;12623.655; 0.00204; 0.00006
 342.26;  182.956;  132.885;12797.052; 0.00312; 0.00009
 342.85;  197.968;  148.086;12937.109; 0.00288; 0.00008
 343.45;  167.212;  127.392;12984.911; 0.00213; 0.00006
 344.05;  214.030;  157.382;13082.432; 0.00307; 0.00009
 344.64;  221.124;  156.969;13194.041; 0.00326; 0.00009
 345.24;  188.623;  119.945;13265.813; 0.00340; 0.00010
 345.83;  249.794;  163.730;13312.418; 0.00429; 0.00012
 346.43;  194.392;  115.042;13468.470; 0.00335; 0.00010
 347.02;  274.815;  183.844;13572.576; 0.00374; 0.00011
 347.62;  178.256;   84.249;13379.367; 0.00373; 0.00011
 348.21;  264.425;  151.546;13533.522; 0.00450; 0.00013
 348.81;  321.029;  181.646;13381.845; 0.00537; 0.00016
 349.41;  285.567;  148.051;13369.417; 0.00522; 0.00015
 350.00;  296.452;  126.049;13470.448; 0.00670; 0.00020
 350.60;  315.643;  126.948;13588.306; 0.00743; 0.00022
 351.19;  377.237;  152.847;13759.078; 0.00860; 0.00025
 351.79;  394.358;  173.150;13840.276; 0.00780; 0.00023
 352.38;  389.967;  111.051;13938.916; 0.00939; 0.00028
 352.98;  459.485;  141.641;13979.839; 0.01099; 0.00032
 353.57;  496.330;  135.134;14008.884; 0.01203; 0.00036
 354.17;  494.744;  100.336;14067.448; 0.01237; 0.00037
 354.76;  621.786;  155.229;14095.882; 0.01424; 0.00042
 355.36;  620.316;  135.021;14156.360; 0.01457; 0.00043
 355.95;  650.425;   93.010;14214.335; 0.01627; 0.00048
 356.55;  691.246;  103.101;14229.371; 0.01677; 0.00050
 357.14;  781.758;  121.490;14325.365; 0.01799; 0.00054
 357.74;  821.890;  132.882;14177.550; 0.01841; 0.00055
 358.33;  859.874;  137.768;14059.315; 0.01909; 0.00057
 358.93;  870.937;  136.352;13923.782; 0.01959; 0.00059
 359.52;  882.764;  114.643;13798.344; 0.01963; 0.00059
 360.12;  917.562;  116.631;13719.972; 0.02043; 0.00061
 360.71;  923.858;  136.431;13707.554; 0.01959; 0.00059
 361.31;  952.317;  157.026;13621.268; 0.01943; 0.00059
 361.90; 1165.668;  322.920;13507.738; 0.02082; 0.00063
 362.50;  956.716;  143.914;13484.098; 0.02058; 0.00062
 363.09;  931.034;  124.816;13341.582; 0.02059; 0.00062
 363.69;  917.307;  123.025;13261.120; 0.02074; 0.00063
 364.28;  941.705;  131.937;13269.773; 0.02151; 0.00066
 364.88; 1046.947;  189.041;13351.165; 0.02383; 0.00073
 365.47; 1023.238;  148.852;13342.885; 0.02371; 0.00072
 366.06;  993.517;  123.162;13257.149; 0.02399; 0.00073
 366.66; 1037.353;  131.966;13117.317; 0.02545; 0.00078
 367.25; 1062.370;  149.468;13006.099; 0.02566; 0.00079
 367.85; 1047.917;  118.174;12998.112; 0.02537; 0.00078
 368.44; 1120.752;  195.066;12809.111; 0.02539; 0.00078
 369.04; 1097.285;  138.258;12658.104; 0.02651; 0.00082
 369.63; 1094.047;  155.053;12538.629; 0.02568; 0.00079
 370.23; 1064.202;  130.248;12507.819; 0.02583; 0.00080
 370.82; 1047.536;  127.040;12275.616; 0.02642; 0.00082
 371.41; 1032.572;  118.644;12167.683; 0.02633; 0.00082
 372.01; 1012.357;  140.643;12115.712; 0.02564; 0.00080
 372.60;  963.688;  117.146;11975.456; 0.02558; 0.00080
 373.20; 1005.355;  174.654;12039.964; 0.02455; 0.00077
 373.79;  927.914;  147.261;11941.740; 0.02251; 0.00070
 374.39;  864.088;  135.358;11902.018; 0.02129; 0.00067
 374.98;  797.585;  140.058;11792.806; 0.01925; 0.00060
 375.57;  803.563;  132.655;11721.304; 0.02010; 0.00063
 376.17;  759.132;  148.552;11796.660; 0.01843; 0.00058
 376.76;  704.163;  126.855;11721.704; 0.01749; 0.00055
 377.36;  620.170;  108.556;11727.335; 0.01554; 0.00049
 377.95;  633.287;  123.558;11721.412; 0.01526; 0.00048
 378.55;  574.287;  127.358;11711.712; 0.01348; 0.00043
 379.14;  538.833;  124.964;11709.428; 0.01236; 0.00039
 379.73;  505.331;  107.651;11636.354; 0.01233; 0.00039
 380.33;  504.965;  127.356;11703.912; 0.01148; 0.00037
 380.92;  493.250;  140.554;11668.144; 0.01084; 0.00035
 381.51;  461.799;  150.860;11686.070; 0.00942; 0.00030
 382.11;  399.194;  107.159;11643.046; 0.00888; 0.00028
 382.70;  425.055;  150.654;11603.363; 0.00848; 0.00027
 383.30;  392.773;  131.356;11590.348; 0.00800; 0.00026
 383.89;  396.747;  148.153;11709.427; 0.00760; 0.00024
 384.48;  330.940;  116.153;11665.995; 0.00657; 0.00021
 385.08;  357.752;  135.354;11854.352; 0.00677; 0.00022
 385.67;  298.068;  111.656;11824.527; 0.00556; 0.00018
 386.27;  310.670;  119.756;11982.236; 0.00568; 0.00018
 386.86;  299.340;  118.553;12038.498; 0.00542; 0.00018
 387.45;  278.464;  105.955;12123.205; 0.00508; 0.00016
 388.05;  318.781;  157.557;12277.087; 0.00467; 0.00015
 388.64;  328.294;  161.559;12483.044; 0.00481; 0.00016
 389.23;  294.080;  148.357;12506.880; 0.00416; 0.00014
 389.83;  259.952;  119.954;12733.854; 0.00399; 0.00013
 390.42;  280.960;  151.455;13005.489; 0.00362; 0.00012
 391.01;  245.116;  118.762;13122.046; 0.00347; 0.00011
 391.61;  219.456;  112.254;13136.770; 0.00296; 0.00010
 392.20;  252.351;  129.354;13389.848; 0.00336; 0.00011
 392.79;  234.666;  110.456;13482.314; 0.00335; 0.00011
 393.39;  277.650;  176.754;13714.141; 0.00269; 0.00009
 393.98;  211.278;   96.957;13887.473; 0.00301; 0.00010
 394.57;  249.514;  144.349;14119.877; 0.00277; 0.00009
 395.17;  272.588;  181.358;14342.017; 0.00234; 0.00008
 395.76;  250.734;  157.252;14398.170; 0.00242; 0.00008
 396.35;  234.777;  121.657;14723.368; 0.00285; 0.00009
 396.95;  232.770;  153.556;14851.736; 0.00198; 0.00007
 397.54;  227.075;  129.257;15011.260; 0.00241; 0.00008
 398.13;  310.590;  210.558;15237.327; 0.00245; 0.00008
 398.73;  230.684;  137.058;15364.602; 0.00225; 0.00008
 399.32;  213.235;  116.952;15491.473; 0.00232; 0.00008
 399.91;  196.574;  120.357;15600.753; 0.00181; 0.00006
 400.50;  229.358;  142.255;15697.381; 0.00206; 0.00007
 401.10;  229.496;  151.159;15828.054; 0.00183; 0.00006
 401.69;  185.475;  127.157;15854.460; 0.00135; 0.00005
 402.28;  196.579;  132.357;15897.175; 0.00147; 0.00005
 402.88;  205.579;  140.157;15970.475; 0.00149; 0.00005
 403.47;  203.881;  117.857;16008.786; 0.00196; 0.00007
 404.06;  232.173;  152.956;16056.750; 0.00180; 0.00006
 404.66;  204.478;  146.857;16006.671; 0.00131; 0.00004
 405.25;  227.941;  155.853;16161.003; 0.00163; 0.00006
 405.84;  197.006;  134.860;16197.799; 0.00139; 0.00005
 406.43;  190.185;  110.258;16343.805; 0.00178; 0.00006
 407.03;  242.094;  159.759;16413.145; 0.00182; 0.00006
 407.62;  194.417;  114.250;16282.092; 0.00180; 0.00006
 408.21;  284.283;  202.758;16281.894; 0.00182; 0.00006
 408.80;  178.459;  111.055;16313.383; 0.00150; 0.00005
 409.40;  181.997;  111.459;16243.061; 0.00156; 0.00005
 409.99;  237.778;  148.957;16360.174; 0.00196; 0.00007
 410.58;  174.319;   97.362;16266.062; 0.00170; 0.00006
 411.17;  186.811;  109.861;16281.023; 0.00170; 0.00006
 411.77;  203.870;  151.656;16300.337; 0.00116; 0.00004
 412.36;  191.790;  108.458;16211.225; 0.00186; 0.00006
 412.95;  190.419;  117.362;16312.261; 0.00162; 0.00006
 413.54;  198.130;  127.563;16200.710; 0.00156; 0.00005
 414.14;  213.024;  135.163;16218.084; 0.00173; 0.00006
 414.73;  160.699;   94.360;15995.170; 0.00149; 0.00005
 415.32;  194.421;  111.262;16069.668; 0.00187; 0.00006
 415.91;  181.955;  109.366;15987.828; 0.00164; 0.00006
 416.50;  175.440;   95.064;15943.356; 0.00182; 0.00006
 417.10;  188.416;  111.162;15912.947; 0.00177; 0.00006
 417.69;  264.532;  183.263;15903.020; 0.00187; 0.00007
 418.28;  219.132;  141.563;15902.022; 0.00179; 0.00006
 418.87;  220.852;  148.466;15922.014; 0.00167; 0.00006
 419.47;  224.136;  126.764;15950.140; 0.00226; 0.00008
 420.06;  248.588;  168.670;15879.978; 0.00186; 0.00007
 420.65;  228.738;  155.164;15894.348; 0.00173; 0.00006
 421.24;  203.782;  120.869;15789.352; 0.00196; 0.00007
 421.83;  176.475;  107.869;15610.418; 0.00163; 0.00006
 422.43;  189.969;  123.968;15405.994; 0.00159; 0.00006
 423.02;  214.942;  152.165;15476.169; 0.00152; 0.00005
 423.61;  243.723;  162.074;15425.441; 0.00198; 0.00007
 424.20;  199.303;  134.772;15117.051; 0.00159; 0.00006
 424.79;  224.428;  145.875;15050.664; 0.00194; 0.00007
 425.38;  200.994;  120.671;14884.408; 0.00200; 0.00007
 425.98;  176.690;  106.470;14787.487; 0.00176; 0.00006
 426.57;  279.734;  185.876;14780.592; 0.00237; 0.00008
 427.16;  289.546;  196.677;14687.646; 0.00236; 0.00008
 427.75;  197.820;  113.374;14634.427; 0.00218; 0.00008
 428.34;  178.039;  105.476;14516.915; 0.00188; 0.00007
 428.93;  216.687;  143.182;14525.937; 0.00190; 0.00007
 429.53;  215.722;  147.486;14399.900; 0.00178; 0.00006
 430.12;  187.983;  111.081;14222.417; 0.00203; 0.00007
 430.71;  161.166;  102.079;14024.941; 0.00158; 0.00006
 431.30;  262.033;  177.075;14018.987; 0.00228; 0.00008
 431.89;  225.377;  139.481;13882.793; 0.00231; 0.00008
 432.48;  246.818;  167.685;13707.379; 0.00216; 0.00008
 433.08;  199.385;  125.282;13447.029; 0.00205; 0.00007
 433.67;  198.707;  134.684;13403.231; 0.00177; 0.00006
 434.26;  221.221;  132.886;13265.896; 0.00245; 0.00009
 434.85;  231.734;  150.987;13088.457; 0.00226; 0.00008
 435.44;  222.259;  135.390;12961.570; 0.00244; 0.00009
 436.03;  232.874;  156.292;12988.141; 0.00215; 0.00008
 436.62;  346.422;  249.186;12866.499; 0.00275; 0.00010
 437.21;  196.771;  142.792;12843.026; 0.00153; 0.00006
 437.81;  233.481;  161.293;12774.470; 0.00205; 0.00008
 438.40;  238.955;  162.390;12805.753; 0.00217; 0.00008
 438.99;  243.501;  144.495;12760.762; 0.00283; 0.00010
 439.58;  174.184;  124.993;12757.487; 0.00141; 0.00005
 440.17;  192.401;  132.595;12745.864; 0.00171; 0.00006
 440.76;  210.784;  158.293;12749.184; 0.00151; 0.00006
 441.35;  175.814;  113.797;12701.024; 0.00178; 0.00007
 441.94;  212.981;  149.493;12804.873; 0.00183; 0.00007
 442.53;  163.687;   95.694;12713.802; 0.00195; 0.00007
 443.12;  227.414;  145.797;12880.022; 0.00233; 0.00009
 443.72;  162.028;  105.499;12883.889; 0.00161; 0.00006
 444.31;  169.959;  119.602;12914.632; 0.00143; 0.00005
 444.90;  254.317;  177.597;13017.940; 0.00218; 0.00008
 445.49;  163.931;  114.599;12977.005; 0.00140; 0.00005
 446.08;  189.821;  132.398;13065.358; 0.00162; 0.00006
 446.67;  223.810;  141.996;13047.204; 0.00233; 0.00009
 447.26;  165.622;  108.810;13128.922; 0.00159; 0.00006
 447.85;  182.867;  103.903;13136.170; 0.00222; 0.00008
 448.44;  163.503;   96.507;13156.836; 0.00187; 0.00007
 449.03;  166.747;  105.201;13212.075; 0.00171; 0.00006
 449.62;  180.216;   98.197;13212.835; 0.00228; 0.00009
 450.21;  192.305;  142.608;13232.144; 0.00137; 0.00005
 450.80;  209.367;  132.803;13210.071; 0.00210; 0.00008
 451.39;  163.071;  102.204;13280.288; 0.00165; 0.00006
 451.98;  183.522;  116.710;13361.025; 0.00180; 0.00007
 452.57;  166.310;  123.308;13352.967; 0.00115; 0.00004
 453.17;  168.579;  103.805;13390.926; 0.00172; 0.00007
 453.76;  169.341;   98.212;13449.411; 0.00188; 0.00007
 454.35;  174.816;  119.209;13449.195; 0.00145; 0.00006
 454.94;  166.627;  113.110;13547.948; 0.00139; 0.00005
 455.53;  162.321;   98.810;13647.621; 0.00164; 0.00006
 456.12;  158.047;  110.013;13639.739; 0.00124; 0.00005
 456.71;  207.476;  143.616;13729.472; 0.00163; 0.00006
 457.30;  171.875;  109.316;13869.368; 0.00158; 0.00006
 457.89;  169.165;  122.815;13859.720; 0.00117; 0.00004
 458.48;  137.557;   86.714;13992.283; 0.00127; 0.00005
 459.07;  188.391;  133.618;14014.042; 0.00136; 0.00005
 459.66;  150.972;   94.616;14017.355; 0.00140; 0.00005
 460.25;  141.676;   91.816;14043.774; 0.00123; 0.00005
 460.84;  178.879;  115.516;14122.487; 0.00156; 0.00006
 461.43;  151.484;   92.917;14239.908; 0.00143; 0.00006
 462.02;  208.277;  135.216;14250.976; 0.00179; 0.00007
 462.61;  142.892;   90.918;14354.648; 0.00126; 0.00005
 463.20;  160.110;  108.920;14434.730; 0.00124; 0.00005
 463.79;  173.297;  127.419;14540.469; 0.00110; 0.00004
 464.38;  131.290;   82.818;14582.535; 0.00116; 0.00005
 464.97;  172.498;   96.319;14564.374; 0.00181; 0.00007
 465.56;  129.205;   86.920;14552.106; 0.00101; 0.00004
 466.15;  124.479;   89.628;14775.149; 0.00082; 0.00003
 466.74;  180.975;  115.128;14771.829; 0.00154; 0.00006
 467.32;  128.630;   63.923;14624.322; 0.00152; 0.00006
 467.91;  181.940;  112.124;14685.370; 0.00163; 0.00006
 468.50;  135.141;   76.624;14662.474; 0.00136; 0.00005
 469.09;  158.966;  101.027;14603.087; 0.00134; 0.00005
 469.68;  229.930;  168.922;14576.221; 0.00141; 0.00006
 470.27;  182.282;  125.529;14710.860; 0.00130; 0.00005
 470.86;  158.909;   94.832;14779.790; 0.00146; 0.00006
 471.45;  143.684;   98.329;14796.673; 0.00103; 0.00004
 472.04;  136.483;   75.729;14893.567; 0.00138; 0.00005
 472.63;  277.200;  199.831;14949.444; 0.00176; 0.00007
 473.22;  166.138;  104.735;15081.421; 0.00139; 0.00005
 473.81;  133.335;   83.335;15204.309; 0.00113; 0.00004
 474.40;  189.720;  139.133;15323.040; 0.00114; 0.00005
 474.99;  174.830;  108.034;15371.985; 0.00150; 0.00006
 475.58;  209.411;  144.432;15472.797; 0.00146; 0.00006
 476.17;  125.265;   77.639;15381.247; 0.00107; 0.00004
 476.76;  135.054;   72.837;15500.493; 0.00139; 0.00006
 477.34;  158.659;  108.738;15690.220; 0.00111; 0.00004
 477.93;  130.038;   82.435;15655.120; 0.00106; 0.00004
 478.52;  148.563;   77.138;15804.937; 0.00158; 0.00006
 479.11;  117.956;   67.038;15723.306; 0.00113; 0.00005
 479.70;  227.455;  150.437;15824.401; 0.00171; 0.00007
 480.29;   93.849;   35.837;15854.772; 0.00129; 0.00005
 480.88;  136.327;   83.734;15970.172; 0.00117; 0.00005
 481.47;  162.057;   93.738;16240.510; 0.00151; 0.00006
 482.06;  108.154;   82.137;16277.097; 0.00058; 0.00002
 482.64;  121.027;   76.234;16369.672; 0.00100; 0.00004
 483.23;  124.926;   66.934;16600.365; 0.00129; 0.00005
 483.82;  104.744;   65.236;16701.951; 0.00088; 0.00004
 484.41;  131.574;   83.640;16720.385; 0.00107; 0.00004
 485.00;   97.881;   68.640;16684.320; 0.00065; 0.00003
 485.59;  126.749;   84.837;16757.570; 0.00094; 0.00004
 486.18;  114.854;   67.837;16565.195; 0.00106; 0.00004
 486.77;  133.867;   99.239;16641.256; 0.00078; 0.00003
 487.35;  146.791;   97.942;16516.766; 0.00111; 0.00005
 487.94;  152.612;  103.544;16342.365; 0.00111; 0.00005
 488.53;  184.150;  120.337;16328.276; 0.00145; 0.00006
 489.12;  130.958;   78.338;16137.914; 0.00120; 0.00005
 489.71;  126.900;   73.043;16040.510; 0.00123; 0.00005
 490.30;  125.254;   75.137;15823.296; 0.00116; 0.00005
 490.89;  111.900;   77.243;15770.310; 0.00080; 0.00003
 491.47;  218.777;  141.540;15636.203; 0.00180; 0.00007
 492.06;  178.407;  121.544;15767.440; 0.00132; 0.00005
 492.65;  112.459;   73.638;15651.517; 0.00091; 0.00004
 493.24;  129.981;   85.340;15745.321; 0.00105; 0.00004
 493.83;  124.896;   73.942;15737.289; 0.00121; 0.00005
 494.42;  100.256;   53.138;15680.605; 0.00112; 0.00005
 495.00;  146.644;   93.948;15772.610; 0.00125; 0.00005
 495.59;  149.818;  101.745;15555.489; 0.00116; 0.00005
 496.18;  125.384;   75.841;15587.835; 0.00120; 0.00005
 496.77;  113.926;   55.746;15499.329; 0.00141; 0.00006
 497.36;  184.601;  108.643;15408.615; 0.00186; 0.00008
 497.94;  180.393;  116.542;15405.174; 0.00157; 0.00007
 498.53;  124.751;   70.649;15336.545; 0.00134; 0.00006
 499.12;  111.471;   49.051;15247.135; 0.00156; 0.00007
 499.71;  144.493;   84.842;15223.276; 0.00150; 0.00006
 500.30;  130.314;   74.944;15162.171; 0.00140; 0.00006
 500.88;  152.075;   97.752;15165.755; 0.00138; 0.00006
 501.47;  129.856;   77.949;15064.069; 0.00133; 0.00006
 502.06;  143.361;   85.650;15084.289; 0.00149; 0.00006
 502.65;  125.451;   71.749;15053.546; 0.00139; 0.00006
 503.23;  124.827;   67.646;14986.635; 0.00148; 0.00006
 503.82;  131.656;   67.349;15037.966; 0.00168; 0.00007
 504.41;  112.286;   53.153;14906.905; 0.00155; 0.00007
 505.00;  241.462;  155.250;14855.493; 0.00227; 0.00010
 505.58;  165.746;   96.648;14830.521; 0.00184; 0.00008
 506.17;  192.182;  114.252;14742.188; 0.00208; 0.00009
 506.76;  153.439;   81.647;14670.589; 0.00192; 0.00008
 507.35;  177.780;   99.352;14583.180; 0.00211; 0.00009
 507.93;  149.404;   76.655;14526.590; 0.00197; 0.00008
 508.52;  130.496;   63.054;14549.052; 0.00183; 0.00008
 509.11;  161.262;   70.950;14402.097; 0.00247; 0.00011
 509.70;  136.490;   60.253;14285.923; 0.00209; 0.00009
 510.28;  183.188;   96.753;14326.917; 0.00239; 0.00010
 510.87;  165.808;   68.556;14263.308; 0.00270; 0.00012
 511.46;  165.605;   63.355;14128.893; 0.00286; 0.00012
 512.05;  187.170;   53.451;14064.229; 0.00377; 0.00016
 512.63;  208.145;   85.560;14044.876; 0.00346; 0.00015
 513.22;  184.010;   60.356;13960.816; 0.00353; 0.00015
 513.81;  199.874;   74.763;13930.912; 0.00358; 0.00015
 514.40;  195.951;   56.561;13850.705; 0.00403; 0.00017
 514.98;  228.653;   91.761;13811.717; 0.00397; 0.00017
 515.57;  234.409;   98.256;13759.513; 0.00397; 0.00017
 516.16;  377.027;  194.558;13665.995; 0.00538; 0.00023
 516.74;  230.128;   61.158;13650.798; 0.00500; 0.00022
 517.33;  293.403;   93.655;13631.582; 0.00594; 0.00026
 517.92;  293.234;   77.059;13572.029; 0.00645; 0.00028
 518.50;  274.168;   50.163;13526.084; 0.00674; 0.00029
 519.09;  309.929;   76.358;13522.206; 0.00701; 0.00030
 519.68;  319.242;   63.860;13582.164; 0.00771; 0.00033
 520.26;  321.645;   61.960;13514.477; 0.00787; 0.00034
 520.85;  361.040;   67.859;13509.653; 0.00892; 0.00039
 521.44;  393.230;   83.258;13416.109; 0.00951; 0.00041
 522.02;  379.519;   48.057;13449.657; 0.01018; 0.00044
 522.61;  421.375;   54.064;13481.719; 0.01128; 0.00049
 523.20;  491.939;  102.759;13529.651; 0.01198; 0.00052
 523.78;  441.944;   36.860;13421.774; 0.01251; 0.00055
 524.37;  510.147;   81.160;13489.089; 0.01329; 0.00058
 524.96;  541.467;   53.963;13546.479; 0.01513; 0.00066
 525.54;  622.764;   79.662;13559.268; 0.01688; 0.00074
 526.13;  653.658;   86.061;13613.739; 0.01767; 0.00078
 526.72;  671.447;   36.160;13636.987; 0.01983; 0.00087
 527.30;  747.699;   79.866;13736.029; 0.02083; 0.00092
 527.89;  818.688;   87.665;13772.479; 0.02285; 0.00101
 528.48;  847.468;   67.963;13717.585; 0.02441; 0.00108
 529.06;  936.986;   96.665;13839.567; 0.02631; 0.00116
 529.65; 1019.006;   87.867;13879.060; 0.02916; 0.00129
 530.23; 1110.536;   90.871;13985.299; 0.03197; 0.00142
 530.82; 1216.270;   92.763;14006.492; 0.03532; 0.00157
 531.41; 1284.081;   82.864;13952.847; 0.03794; 0.00169
 531.99; 1443.390;  128.365;14189.484; 0.04138; 0.00184
 532.58; 1513.512;   53.068;14202.188; 0.04612; 0.00205
 533.17; 2050.216;  372.868;14394.606; 0.05265; 0.00235
 533.75; 1790.392;   82.365;14400.594; 0.05363; 0.00239
 534.34; 1925.094;   46.266;14487.405; 0.05909; 0.00264
 534.92; 2189.198;  109.366;14675.321; 0.06513; 0.00291
 535.51; 2333.202;   65.267;14802.540; 0.07080; 0.00317
 536.10; 2535.789;   73.565;14892.283; 0.07713; 0.00346
 536.68; 2741.480;   46.464;14930.339; 0.08409; 0.00377
 537.27; 2972.321;   71.169;15110.231; 0.09047; 0.00406
 537.85; 3290.396;   79.266;15302.512; 0.09928; 0.00446
 538.44; 3573.531;   64.070;15447.575; 0.10802; 0.00486
 539.02; 3875.400;   44.966;15526.634; 0.11806; 0.00532
 539.61; 4270.507;   51.267;15661.866; 0.12902; 0.00582
 540.20; 4646.629;   99.270;15878.364; 0.13852; 0.00625
 540.78; 5079.515;   90.468;16158.702; 0.15076; 0.00681
 541.37; 5499.154;   64.073;16286.580; 0.16332; 0.00739
 541.95; 6062.842;  101.471;16484.824; 0.17839; 0.00808
 542.54; 6551.248;   80.672;16728.355; 0.19166; 0.00869
 543.12; 7118.513;  103.568;16867.094; 0.20627; 0.00936
 543.71; 7757.223;   90.769;17189.740; 0.22344; 0.01015
 544.29; 8349.810;   73.468;17314.779; 0.23943; 0.01089
 544.88; 9105.606;   92.767;17689.258; 0.25789; 0.01174
 545.47; 9685.301;   40.767;17727.537; 0.27527; 0.01255
 546.05;10501.841;   89.871;17966.822; 0.29477; 0.01345
 546.64;11415.517;  236.468;18134.611; 0.31538; 0.01441
 547.22;12115.554;   67.473;18293.980; 0.33709; 0.01542
 547.81;12962.361;  109.374;18506.514; 0.35633; 0.01631
 548.39;13752.141;   68.371;18651.521; 0.37906; 0.01737
 548.98;14733.034;   82.770;18741.889; 0.40604; 0.01863
 549.56;15529.442;   80.571;18939.928; 0.42456; 0.01950
 550.15;16287.634;   49.370;19057.387; 0.44619; 0.02052
 550.73;17204.983;   61.976;19266.816; 0.46987; 0.02163
 551.32;18132.375;   69.075;19436.779; 0.49326; 0.02273
 551.90;19021.435;   60.871;19450.693; 0.51822; 0.02390
 552.49;20001.871;   87.875;19831.463; 0.54102; 0.02498
 553.07;20831.645;  100.672;19986.041; 0.56346; 0.02605
 553.66;21638.052;   84.973;20108.471; 0.58322; 0.02699
 554.24;22339.384;  179.276;20174.721; 0.60303; 0.02793
 554.83;23127.161;   81.874;20293.715; 0.62363; 0.02892
 555.41;23893.665;   74.874;20431.230; 0.64385; 0.02989
 556.00;24706.763;   89.774;20531.824; 0.66292; 0.03081
 556.58;25225.199;   77.378;20630.889; 0.67823; 0.03155
 557.17;25891.391;   79.077;20893.254; 0.69385; 0.03231
 557.75;26367.918;   62.280;21027.377; 0.70725; 0.03297
 558.33;27116.683;   57.876;21327.117; 0.72120; 0.03365
 558.92;27568.415;   69.480;21511.662; 0.73137; 0.03417
 559.50;27969.088;   57.177;21679.539; 0.73985; 0.03460
 560.09;28367.992;   52.377;21966.859; 0.74782; 0.03501
 560.67;28670.293;   92.177;22094.262; 0.75438; 0.03535
 561.26;29144.985;  273.977;22325.426; 0.75887; 0.03560
 561.84;29220.098;   96.578;22537.285; 0.76501; 0.03592
 562.43;29372.324;   69.881;22665.506; 0.76605; 0.03601
 563.01;29495.281;   68.476;22804.908; 0.77164; 0.03631
 563.60;29594.889;   63.477;22987.145; 0.77238; 0.03638
 564.18;29246.685;   18.377;22954.326; 0.76902; 0.03626
 564.76;29300.198;   96.978;23225.584; 0.76762; 0.03623
 565.35;29316.508;   19.179;23472.633; 0.76659; 0.03622
 565.93;29344.308;   84.879;23797.533; 0.76513; 0.03619
 566.52;29423.396;   57.978;24374.377; 0.76391; 0.03617
 567.10;29201.522;   42.481;24673.195; 0.76141; 0.03609
 567.68;29141.881;   45.276;25084.010; 0.75743; 0.03594
 568.27;28786.603;   22.979;25516.410; 0.75000; 0.03562
 568.85;28881.411;  107.380;26141.744; 0.74620; 0.03548
 569.44;28455.221;   44.781;26641.191; 0.73835; 0.03514
 570.02;28365.501;    5.678;27187.600; 0.73428; 0.03498
 570.60;28171.119;   76.581;27742.281; 0.72524; 0.03459
 571.19;27910.503;   64.579;28157.010; 0.71626; 0.03419
 571.77;27593.590;   90.277;28428.947; 0.70888; 0.03388
 572.36;27270.985;   14.977;28979.928; 0.70004; 0.03349
 572.94;27062.311;   57.780;29391.047; 0.69238; 0.03316
 573.52;26637.318;   21.580;29856.078; 0.68135; 0.03266
 574.11;26430.722;   31.081;30210.297; 0.67326; 0.03230
 574.69;26132.495;   39.278;30610.469; 0.66571; 0.03198
 575.27;25979.001;   33.378;31068.201; 0.65839; 0.03166
 575.86;25609.312;   44.780;31324.652; 0.64976; 0.03127
 576.44;25349.419;   41.781;31821.682; 0.64105; 0.03088
 577.03;25088.974;   38.175;32242.576; 0.63409; 0.03058
 577.61;24745.680;   28.576;32332.604; 0.62694; 0.03027
 578.19;24442.210;   27.179;32663.738; 0.61798; 0.02986
 578.78;24093.207;   28.379;33150.430; 0.60858; 0.02944
 579.36;23856.233;   21.282;33498.246; 0.60099; 0.02910
 579.94;23779.777;   54.176;33838.488; 0.59681; 0.02893
 580.53;23386.623;   50.281;33925.402; 0.58602; 0.02843
 581.11;23127.809;   60.479;33902.137; 0.57687; 0.02802
 581.69;22891.303;   82.579;33934.109; 0.56919; 0.02767
 582.28;22494.306;   40.579;34024.719; 0.56085; 0.02729
 582.86;22311.318;   29.580;34404.578; 0.55556; 0.02706
 583.44;21899.712;   65.680;34290.453; 0.54603; 0.02663
 584.02;21786.896;   43.078;34502.574; 0.54093; 0.02640
 584.61;21579.090;   67.677;34367.449; 0.53516; 0.02615
 585.19;21369.932;   72.082;34147.840; 0.53140; 0.02599
 585.77;21078.411;   69.280;34324.949; 0.52446; 0.02568
 586.36;20846.074;   34.775;34220.977; 0.52025; 0.02550
 586.94;20625.333;   45.182;34264.648; 0.51618; 0.02532
 587.52;20344.985;   16.577;34169.328; 0.50914; 0.02500
 588.11;19999.918;   53.080;34027.176; 0.50295; 0.02472
 588.69;19877.984;   76.376;34133.223; 0.49991; 0.02460
 589.27;19517.322;   27.181;34017.098; 0.49397; 0.02433
 589.85;19262.412;   34.080;34200.453; 0.48666; 0.02399
 590.44;19163.222;   21.681;34417.695; 0.48444; 0.02391
 591.02;18836.814;   37.680;34525.262; 0.47865; 0.02364
 591.60;18583.984;   32.876;34488.723; 0.47274; 0.02337
 592.18;18203.114;   49.980;34247.359; 0.46685; 0.02311
 592.77;17993.768;   48.875;34253.250; 0.46289; 0.02293
 593.35;17639.833;   16.382;34408.547; 0.45581; 0.02260
 593.93;17469.829;    4.282;34700.426; 0.45098; 0.02239
 594.51;17134.704;   28.279;34792.813; 0.44529; 0.02213
 595.10;16851.704;  -19.621;35006.313; 0.43978; 0.02187
 595.68;16663.325;   37.981;35184.211; 0.43528; 0.02167
 596.26;16408.208;    5.179;35202.832; 0.43050; 0.02145
 596.84;16105.792;  -11.623;35400.758; 0.42475; 0.02119
 597.43;15930.791;   44.577;35554.852; 0.42032; 0.02099
 598.01;15643.983;    5.076;35705.520; 0.41519; 0.02075
 598.59;15469.325;    6.281;35872.508; 0.41087; 0.02056
 599.17;15134.783;   16.776;35825.816; 0.40398; 0.02023
 599.76;14860.809;   -1.421;35690.133; 0.39881; 0.01999
 600.34;14593.366;   -2.426;35831.438; 0.39315; 0.01973
 600.92;14468.393;   36.577;35801.262; 0.39029; 0.01960
 601.50;14175.864;   -4.726;35980.527; 0.38398; 0.01930
 602.08;14009.478;   74.876;35747.195; 0.37997; 0.01912
 602.67;13640.472;   59.875;35853.664; 0.37161; 0.01872
 603.25;13476.216;    6.580;35959.473; 0.36895; 0.01860
 603.83;13156.117;   11.180;35792.375; 0.36213; 0.01828
 604.41;12921.601;   -2.522;35914.496; 0.35727; 0.01805
 604.99;12702.687;   47.377;36049.531; 0.35115; 0.01776
 605.58;12331.761;    9.674;35814.113; 0.34602; 0.01751
 606.16;12103.987;   14.777;35771.234; 0.34096; 0.01727
 606.74;11824.074;   29.775;35656.973; 0.33453; 0.01696
 607.32;11584.522;   15.481;35315.395; 0.32929; 0.01671
 607.90;11408.288;   76.477;35155.938; 0.32424; 0.01647
 608.48;11068.912;   21.180;34978.152; 0.31781; 0.01616
 609.07;10913.329;   53.182;34852.227; 0.31427; 0.01600
 609.65;10721.678;  109.676;34810.895; 0.30744; 0.01566
 610.23;10448.485;   24.477;34730.625; 0.30400; 0.01550
 610.81;10188.399;   -8.022;34496.090; 0.29859; 0.01524
 611.39; 9923.284;  -18.224;34449.219; 0.29240; 0.01494
 611.97; 9734.177;   23.876;34513.590; 0.28717; 0.01469
 612.55; 9489.621;   29.181;34686.289; 0.27991; 0.01433
 613.14; 9290.497;   -9.422;34700.883; 0.27656; 0.01417
 613.72; 9014.566;  -38.326;34388.938; 0.27164; 0.01393
 614.30; 8926.482;   -8.624;34659.613; 0.26763; 0.01374
 614.88; 8717.084;    2.576;34379.121; 0.26288; 0.01351
 615.46; 8433.493;    2.977;34221.359; 0.25587; 0.01316
 616.04; 8242.057;   25.773;33908.996; 0.25188; 0.01297
 616.62; 8066.566;   33.174;33753.336; 0.24633; 0.01270
 617.20; 7841.071;  -34.725;33597.859; 0.24277; 0.01252
 617.79; 7743.274;   50.475;33727.773; 0.23672; 0.01222
 618.37; 7441.315;  -18.220;33152.965; 0.23184; 0.01198
 618.95; 7299.581;   19.576;33161.605; 0.22772; 0.01178
 619.53; 7076.381;  -23.724;32939.707; 0.22323; 0.01156
 620.11; 6926.086;   -4.123;33004.430; 0.21890; 0.01135
 620.69; 6713.070;   -2.425;32959.859; 0.21324; 0.01106
 621.27; 6587.199;   33.878;32839.289; 0.20968; 0.01089
 621.85; 6448.182;   15.776;32868.613; 0.20572; 0.01069
 622.43; 6169.371;  -10.725;32800.363; 0.19976; 0.01039
 623.01; 6028.587;  -52.623;32647.637; 0.19763; 0.01029
 623.59; 5904.247;  -42.528;32613.248; 0.19409; 0.01012
 624.17; 5764.406;    6.579;32739.422; 0.18863; 0.00984
 624.76; 5597.462;  -11.726;32559.518; 0.18468; 0.00964
 625.34; 5466.997;  -10.722;32568.980; 0.18173; 0.00950
 625.92; 5372.400;   -0.122;32468.295; 0.17870; 0.00935
 626.50; 5135.593;  -31.322;32290.064; 0.17305; 0.00906
 627.08; 5066.911;   -6.320;32135.045; 0.17067; 0.00894
 627.66; 4906.802;    1.679;32275.604; 0.16527; 0.00867
 628.24; 4805.454;  -12.027;31949.385; 0.16366; 0.00859
 628.82; 4687.761;  -12.326;31947.217; 0.15989; 0.00840
 629.40; 4507.884;  -19.124;31771.922; 0.15477; 0.00814
 629.98; 4400.567;  -37.626;31671.943; 0.15230; 0.00802
 630.56; 4335.347;  -18.428;31838.951; 0.14973; 0.00789
 631.14; 4187.487;  -47.123;31703.836; 0.14623; 0.00771
 631.72; 4111.834;  -36.630;31831.287; 0.14348; 0.00758
 632.30; 3983.864;  -44.926;31650.430; 0.14043; 0.00742
 632.88; 3890.759;  -56.627;31645.305; 0.13824; 0.00731
 633.46; 3764.088;  -48.723;31591.738; 0.13418; 0.00710
 634.04; 3730.954;  -20.727;31630.781; 0.13222; 0.00701
 634.62; 3644.478;   13.576;31356.793; 0.12938; 0.00686
 635.20; 3538.668;   -5.226;31504.246; 0.12618; 0.00670
 635.78; 3426.170;  -48.825;31576.955; 0.12468; 0.00663
 636.36; 3345.868;  -48.025;31361.947; 0.12263; 0.00652
 636.94; 3319.335;   18.171;31584.695; 0.11940; 0.00636
 637.52; 3207.648;  -31.428;31522.854; 0.11769; 0.00627
 638.10; 3066.048;  -67.128;31509.953; 0.11415; 0.00609
 638.68; 3033.139;  -30.029;31569.314; 0.11192; 0.00597
 639.26; 2975.491;  -15.123;31614.053; 0.10981; 0.00587
 639.84; 2986.680;   30.876;31718.201; 0.10875; 0.00582
 640.42; 2803.572;  -48.125;31593.980; 0.10527; 0.00563
 641.00; 2768.673;  -72.625;31727.652; 0.10476; 0.00561
 641.58; 2688.274;  -32.725;31806.523; 0.10071; 0.00540
 642.16; 2650.876;  -36.525;31878.197; 0.09946; 0.00534
 642.74; 2596.877;  -15.124;32005.869; 0.09695; 0.00521
 643.32; 2550.178;  -16.024;32003.541; 0.09560; 0.00514
 643.90; 2474.780;  -24.724;31874.514; 0.09354; 0.00503
 644.47; 2418.281;  -33.924;31967.086; 0.09226; 0.00497
 645.05; 2351.282;  -43.024;32259.957; 0.09006; 0.00486
 645.63; 2295.484;  -29.624;32513.930; 0.08750; 0.00472
 646.21; 2249.785;  -40.423;32526.102; 0.08652; 0.00467
 646.79; 2223.886;  -18.323;32665.674; 0.08486; 0.00459
 647.37; 2160.488;  -48.523;32710.047; 0.08406; 0.00455
 647.95; 2143.789;   11.777;32776.320; 0.08128; 0.00440
 648.53; 2105.990;  -17.623;32969.391; 0.08101; 0.00439
 649.11; 2014.792;  -59.123;33030.465; 0.07952; 0.00431
 649.69; 1961.493;  -62.923;33200.035; 0.07778; 0.00422
 650.27; 1911.294;  -37.322;33310.707; 0.07496; 0.00407
 650.85; 1893.196;  -50.422;33928.180; 0.07480; 0.00407
 651.42; 1837.597;  -54.322;34418.152; 0.07320; 0.00399
 652.00; 1798.998;  -69.822;34969.625; 0.07215; 0.00393
 652.58; 1801.600;  -42.522;35191.797; 0.07144; 0.00390
 653.16; 1751.001;  -49.022;36135.668; 0.06988; 0.00381
 653.74; 1753.602;  -19.021;36648.441; 0.06889; 0.00376
 654.32; 1736.204;    0.879;37165.813; 0.06752; 0.00369
 654.90; 1655.105;  -21.321;37183.387; 0.06525; 0.00357
 655.48; 1591.406;  -53.621;36928.457; 0.06429; 0.00352
 656.05; 1560.908;  -79.821;36971.133; 0.06413; 0.00352
 656.63; 1533.709;  -44.121;37052.504; 0.06174; 0.00339
 657.21; 1542.011;  -39.120;36949.676; 0.06200; 0.00341
 657.79; 1559.512;   20.480;36851.949; 0.06021; 0.00331
 658.37; 1616.113;   92.380;36239.219; 0.06000; 0.00330
 658.95; 1417.715;  -40.820;35664.891; 0.05759; 0.00317
 659.53; 1417.216;  -26.220;35354.664; 0.05683; 0.00313
 660.10; 1362.417;  -46.620;34605.535; 0.05594; 0.00309
 660.68; 1342.619;  -48.119;34863.910; 0.05512; 0.00304
 661.26; 1335.120;  -22.219;34861.480; 0.05382; 0.00297
 661.84; 1319.521;   -6.319;34877.855; 0.05283; 0.00292
 662.42; 1277.923;  -33.619;34987.824; 0.05229; 0.00289
 663.00; 1310.324;    2.181;35223.297; 0.05217; 0.00289
 663.57; 1239.425;  -25.819;35418.969; 0.05047; 0.00280
 664.15; 1187.527;  -59.519;35596.441; 0.04964; 0.00276
 664.73; 1217.728;  -22.218;35720.516; 0.04955; 0.00275
 665.31; 1166.829;  -41.418;35988.887; 0.04824; 0.00268
 665.89; 1142.231;  -33.618;36325.660; 0.04675; 0.00260
 666.46; 1103.032;  -65.918;36449.031; 0.04646; 0.00259
 667.04; 1082.833;  -67.318;36462.703; 0.04577; 0.00255
 667.62; 1036.535;  -53.018;36704.078; 0.04333; 0.00242
 668.20; 1072.036;  -13.117;36966.848; 0.04318; 0.00241
 668.78; 1038.937;  -47.417;37359.223; 0.04299; 0.00240
 669.35; 1216.639;  130.883;37649.895; 0.04298; 0.00240
 669.93;  989.640;  -43.617;37991.066; 0.04071; 0.00228
 670.51;  968.841;  -76.017;38145.738; 0.04110; 0.00230
 671.09;  951.843;  -49.617;38209.109; 0.03931; 0.00220
 671.66;  980.344;  -13.216;38580.684; 0.03888; 0.00218
 672.24;  914.945;  -62.016;38670.656; 0.03828; 0.00215
 672.82;  921.547;  -34.916;39357.125; 0.03722; 0.00209
 673.40;  874.948;  -60.016;39317.500; 0.03651; 0.00206
 673.97;  906.949;  -39.716;39754.371; 0.03696; 0.00208
 674.55;  842.751;  -69.416;40012.742; 0.03564; 0.00201
 675.13;  864.952;  -27.216;40245.215; 0.03488; 0.00197
 675.71;  826.653;  -81.115;40351.789; 0.03556; 0.00201
 676.28;  840.955;  -32.215;40497.563; 0.03425; 0.00194
 676.86;  834.456;  -35.215;40881.934; 0.03389; 0.00192
 677.44;  820.657;  -39.115;41243.406; 0.03333; 0.00189
 678.01;  781.259;  -56.715;41566.777; 0.03227; 0.00183
 678.59;  768.160;  -41.615;41856.949; 0.03114; 0.00177
 679.17;  806.361;  -15.414;42126.723; 0.03143; 0.00178
 679.75;  743.663;  -61.014;42527.496; 0.03062; 0.00174
 680.32;  711.164;  -63.114;42799.965; 0.02937; 0.00167
 680.90;  724.065;  -73.114;42983.039; 0.03021; 0.00172
 681.48;  731.967;  -35.014;43704.012; 0.02875; 0.00164
 682.05;  732.568;  -15.214;43718.582; 0.02814; 0.00160
 682.63;  642.670;  -83.013;44042.055; 0.02732; 0.00156
 683.21;  677.971;  -66.313;44531.629; 0.02781; 0.00159
 683.78;  649.472;  -48.413;44788.398; 0.02607; 0.00149
 684.36;  651.974;  -67.313;44854.273; 0.02690; 0.00154
 684.94;  597.775;  -70.513;45147.445; 0.02499; 0.00143
 685.52;  633.176;  -45.613;45579.016; 0.02534; 0.00145
 686.09;  608.678;  -63.112;45676.688; 0.02516; 0.00144
 686.67;  588.079;  -72.812;45566.063; 0.02482; 0.00142
 687.25;  602.680;  -34.212;45785.234; 0.02396; 0.00138
 687.82;  550.682;  -59.912;45951.406; 0.02300; 0.00132
 688.40;  575.583;  -33.312;46290.379; 0.02286; 0.00132
 688.97;  559.484;  -63.312;46223.852; 0.02348; 0.00135
 689.55;  534.986;  -73.912;46394.621; 0.02290; 0.00132
 690.13;  544.087;  -32.711;46349.594; 0.02175; 0.00125
 690.70;  572.188;    3.589;46622.266; 0.02150; 0.00124
 691.28;  530.590;  -30.511;46828.539; 0.02116; 0.00122
 691.86;  523.791;  -26.811;47108.512; 0.02081; 0.00120
 692.43;  470.292;  -49.811;47368.785; 0.01966; 0.00114
 693.01;  477.694;  -48.211;47615.758; 0.01987; 0.00115
 693.59;  528.395;    4.790;47501.730; 0.01981; 0.00115
 694.16;  439.596;  -71.310;47670.801; 0.01939; 0.00112
 694.74;  446.898;  -35.810;48102.574; 0.01829; 0.00106
 695.31;  419.099;  -67.010;48244.445; 0.01842; 0.00107
 695.89;  402.700;  -65.610;48315.719; 0.01782; 0.00104
 696.47;  414.802;  -65.310;48414.789; 0.01827; 0.00106
 697.04;  493.003;   27.591;48520.863; 0.01775; 0.00103
 697.62;  453.104;  -11.709;48766.734; 0.01765; 0.00103
 698.19;  429.206;  -43.109;48808.207; 0.01800; 0.00105
 698.77;  448.207;  -14.509;49016.680; 0.01757; 0.00103
 699.34;  398.008;  -23.609;49065.551; 0.01605; 0.00094
 699.92;  410.010;  -31.909;49022.223; 0.01685; 0.00099
 700.50;  358.111;  -62.509;49321.195; 0.01601; 0.00094
 701.07;  383.412;  -41.808;49435.668; 0.01623; 0.00095
 701.65;  392.914;  -40.408;49736.641; 0.01646; 0.00097
 702.22;  391.815;  -27.708;49895.914; 0.01595; 0.00094
 702.80;  370.216;  -12.708;49964.785; 0.01463; 0.00086
 703.37;  366.218;  -17.408;50193.457; 0.01465; 0.00086
 703.95;  342.319;  -25.908;50479.629; 0.01409; 0.00083
 704.52;  333.820;  -36.807;50941.102; 0.01413; 0.00083
 705.10;  308.022;  -71.907;51257.973; 0.01451; 0.00086
 705.68;  282.023;  -71.807;51457.348; 0.01350; 0.00080
 706.25;  300.324;  -51.107;51790.617; 0.01341; 0.00079
 706.83;  304.826;  -19.407;51709.492; 0.01241; 0.00073
 707.40;  319.727;   -5.507;51802.363; 0.01246; 0.00074
 707.98;  297.029;  -32.306;52174.938; 0.01258; 0.00074
 708.55;  272.630;  -41.406;52212.406; 0.01202; 0.00071
 709.13;  264.631;  -39.006;52351.980; 0.01162; 0.00069
 709.70;  317.033;  -10.106;52634.453; 0.01255; 0.00074
 710.28;  278.134;  -34.606;52829.727; 0.01196; 0.00071
 710.85;  251.535;  -46.506;52866.598; 0.01144; 0.00068
 711.43;  249.337;  -57.805;53221.270; 0.01174; 0.00070
 712.00;  302.038;    4.195;53035.141; 0.01145; 0.00068
 712.58;  254.939;  -32.305;53267.813; 0.01103; 0.00066
 713.15;  260.641;  -18.105;53512.387; 0.01070; 0.00064
 713.73;  409.342;  106.895;53688.059; 0.01162; 0.00069
 714.30;  282.843;   -7.605;53973.031; 0.01116; 0.00067
 714.88;  209.645;  -56.705;53874.602; 0.01024; 0.00061
 715.45;  253.946;  -12.804;54110.676; 0.01029; 0.00062
 716.03;  220.847;  -38.504;54504.449; 0.00998; 0.00060
 716.60;  225.249;  -36.304;54248.020; 0.01013; 0.00061
 717.17;  205.550;  -50.204;54334.492; 0.00994; 0.00060
 717.75;  228.151;  -28.204;54719.965; 0.00993; 0.00060
 718.32;  231.053;   -5.404;54422.438; 0.00921; 0.00055
 718.90;  179.854;  -44.003;54219.508; 0.00876; 0.00053
 719.47;  207.955;  -34.803;54395.980; 0.00951; 0.00057
 720.05;  215.857;  -19.203;54543.352; 0.00922; 0.00055
 720.62;  187.258;  -32.503;54725.727; 0.00862; 0.00052
 721.20;  240.159;    1.497;54603.398; 0.00944; 0.00057
 721.77;  216.861;  -13.003;54810.770; 0.00910; 0.00055
 722.34;  209.362;  -25.502;54964.742; 0.00929; 0.00056
 722.92;  155.263;  -69.302;54886.816; 0.00893; 0.00054
 723.49;  124.265;  -86.002;55052.387; 0.00837; 0.00051
 724.07;  191.666;  -14.402;55315.660; 0.00820; 0.00050
 724.64;  172.267;  -38.502;55283.133; 0.00842; 0.00051
 725.21;  168.369;  -36.502;55661.605; 0.00816; 0.00049
 725.79;  184.070;  -14.802;55881.777; 0.00793; 0.00048
 726.36;  166.671;  -24.801;56024.648; 0.00764; 0.00046
 726.94;  153.673;  -42.201;56315.820; 0.00783; 0.00048
 727.51;  152.574;  -31.701;56807.895; 0.00733; 0.00045
 728.08;  160.175;  -40.401;56846.766; 0.00802; 0.00049
 728.66;  139.977;  -36.201;57255.438; 0.00705; 0.00043
 729.23;  129.378;  -46.301;57826.512; 0.00700; 0.00043
 729.80;  108.579;  -65.500;57723.582; 0.00698; 0.00043
 730.38;  155.481;  -24.600;58136.555; 0.00721; 0.00044
 730.95;  123.982;  -48.200;58380.727; 0.00690; 0.00042
 731.53;  160.283;  -19.900;58386.398; 0.00723; 0.00044
 732.10;  148.585;  -26.100;58444.473; 0.00703; 0.00043
 732.67;  124.786;  -49.900;58673.445; 0.00704; 0.00043
 733.25;  178.387;   13.001;58645.816; 0.00669; 0.00041
 733.82;  133.789;  -41.199;58935.488; 0.00706; 0.00043
 734.39;  134.190;  -26.699;59133.359; 0.00650; 0.00040
 734.97;   98.292;  -48.699;59207.234; 0.00595; 0.00037
 735.54;  174.293;   24.901;59275.906; 0.00605; 0.00037
 736.11;  112.794;  -27.699;59227.777; 0.00571; 0.00035
 736.69;  171.296;   21.402;59661.551; 0.00608; 0.00037
 737.26;  123.797;  -17.298;59761.621; 0.00572; 0.00035
 737.83;  103.698;  -53.198;59570.594; 0.00639; 0.00039
 738.41;   80.400;  -65.298;59493.766; 0.00594; 0.00037
 738.98;  115.601;  -44.998;59380.039; 0.00657; 0.00041
 739.55;  137.702;    2.402;59269.609; 0.00553; 0.00034
 740.12;   91.504;  -43.198;59404.781; 0.00551; 0.00034
 740.70;   76.305;  -58.897;59095.055; 0.00556; 0.00034
 741.27;   65.506;  -58.297;59266.027; 0.00509; 0.00032
 741.84;   57.008;  -78.697;58997.301; 0.00560; 0.00035
 742.42;   78.409;  -47.997;58935.172; 0.00523; 0.00032
 742.99;  122.910;    2.903;59108.945; 0.00496; 0.00031
 743.56;   90.612;  -38.597;58782.516; 0.00538; 0.00033
 744.13;   61.913;  -60.096;58925.988; 0.00509; 0.00032
 744.71;  241.314;   98.204;59260.961; 0.00596; 0.00037
 745.28;   81.616;  -24.796;59793.035; 0.00444; 0.00028
 745.85;   74.917;  -48.396;60592.605; 0.00515; 0.00032
 746.42;   76.218;  -34.996;60780.477; 0.00468; 0.00029
 747.00;   91.820;  -27.496;60843.250; 0.00506; 0.00032
 747.57;  238.721;   94.605;61990.422; 0.00609; 0.00038
 748.14;   71.322;  -42.195;62691.895; 0.00481; 0.00030
 748.71;   95.424;  -16.295;62852.969; 0.00476; 0.00030
 749.29;   87.625;  -22.195;63047.340; 0.00469; 0.00029
 749.86;   95.726;  -34.295;62964.410; 0.00557; 0.00035
 750.43;   53.728;  -37.195;62938.785; 0.00391; 0.00025
 751.00;   43.129;  -60.395;63066.457; 0.00446; 0.00028
 751.58;   50.030;  -53.194;62976.328; 0.00447; 0.00028
 752.15;  239.432;  103.706;62703.602; 0.00590; 0.00037
 752.72;   36.133;  -67.394;62198.273; 0.00451; 0.00028
 753.29;  176.934;   53.406;61943.344; 0.00540; 0.00034
 753.86;   41.036;  -64.594;61476.219; 0.00464; 0.00029
 754.44;   89.737;  -19.394;60961.590; 0.00481; 0.00030
 755.01;   48.338;  -43.793;61186.664; 0.00407; 0.00026
 755.58;   42.040;  -41.493;61188.133; 0.00371; 0.00023
 756.15;   76.441;  -33.793;61287.309; 0.00491; 0.00031
 756.72;   92.742;   -8.993;61241.980; 0.00456; 0.00029
 757.29;   64.444;  -25.193;61520.852; 0.00402; 0.00025
 757.87;   32.045;  -66.893;61177.625; 0.00448; 0.00028
 758.44;   26.446;  -49.592;61340.598; 0.00345; 0.00022
 759.01;   53.148;  -33.492;61652.770; 0.00394; 0.00025
 759.58;   16.249;  -61.392;61150.539; 0.00355; 0.00023
 760.15;   89.651;  -19.092;61244.414; 0.00499; 0.00032
 760.72;   19.152;  -66.892;61275.887; 0.00397; 0.00025
 761.30;    5.853;  -57.292;61491.059; 0.00293; 0.00019
 761.87;   46.155;  -23.091;61700.730; 0.00321; 0.00020
 762.44;   24.656;  -58.191;61389.602; 0.00387; 0.00025
 763.01;   58.357;  -12.991;61658.973; 0.00333; 0.00021
 763.58;   55.359;  -14.891;61295.145; 0.00331; 0.00021
 764.15;   72.760;  -24.191;61126.418; 0.00459; 0.00029
 764.72;   54.961;  -36.591;61225.391; 0.00434; 0.00028
 765.30;   10.663;  -56.491;60961.664; 0.00320; 0.00020
 765.87;   25.964;  -36.690;60665.336; 0.00301; 0.00019
 766.44;   96.265;   14.410;60815.809; 0.00393; 0.00025
 767.01;   85.867;    3.110;60390.180; 0.00400; 0.00026
 767.58;   -7.132;  -90.290;60249.254; 0.00404; 0.00026
 768.15;   68.069;    4.410;60025.125; 0.00311; 0.00020
 768.72;   22.971;  -60.090;60071.797; 0.00407; 0.00026
 769.29;   18.272;  -67.089;59639.867; 0.00422; 0.00027
 769.86;   66.873;  -23.589;59723.941; 0.00448; 0.00029
 770.43;   -4.125;  -70.789;59481.012; 0.00332; 0.00021
 771.00;   24.176;  -23.889;59468.387; 0.00241; 0.00016
 771.58;   41.577;  -28.989;59318.758; 0.00354; 0.00023
 772.15;    3.479;  -52.189;58759.230; 0.00282; 0.00018
 772.72;   20.880;  -37.988;58501.004; 0.00300; 0.00019
 773.29;   15.281;  -35.288;58823.375; 0.00257; 0.00017
 773.86;   -5.317;  -63.988;58642.848; 0.00300; 0.00019
 774.43;   23.184;  -45.688;58347.719; 0.00355; 0.00023
 775.00;   30.385;  -35.588;58084.594; 0.00342; 0.00022
 775.57;   40.787;  -19.788;58187.266; 0.00315; 0.00020
 776.14;   40.688;  -18.088;57666.438; 0.00309; 0.00020
 776.71;   42.189;   -8.287;57754.707; 0.00266; 0.00017
 777.28;   21.491;  -40.287;57916.582; 0.00326; 0.00021
 777.85;   19.192;  -35.687;57633.352; 0.00292; 0.00019
 778.42;   38.693;  -21.987;57701.227; 0.00324; 0.00021
 778.99;   42.395;   -5.487;57689.199; 0.00256; 0.00017
 779.56;    9.496;  -38.687;57683.570; 0.00260; 0.00017
 780.13;   23.797;  -32.086;57522.441; 0.00303; 0.00020
 780.70;   35.499;   -9.286;57127.715; 0.00245; 0.00016
 781.27;   30.200;   -7.286;57373.688; 0.00205; 0.00013
 781.84;   -9.699;  -46.486;57035.359; 0.00204; 0.00013
 782.41;   42.103;    2.714;57011.230; 0.00219; 0.00014
 782.98;   11.004;  -40.186;56933.703; 0.00286; 0.00019
 783.55;   38.605;  -26.885;56749.277; 0.00368; 0.00024
 784.12;   38.607;   -8.485;56663.449; 0.00266; 0.00017
 784.69;   44.908;   -0.885;56571.520; 0.00260; 0.00017
 785.26;    5.410;  -38.585;56155.594; 0.00252; 0.00017
 785.83;  -25.989;  -65.785;56493.266; 0.00228; 0.00015
 786.40;   31.712;    0.715;56145.137; 0.00179; 0.00012
 786.97;   39.414;    3.616;56138.109; 0.00208; 0.00014
 787.54;   58.215;   10.016;55947.883; 0.00282; 0.00019
 788.11;   46.216;    3.716;55781.355; 0.00250; 0.00016
 788.68;   -8.582;  -43.284;55704.926; 0.00205; 0.00014
 789.25;   11.319;  -19.784;55524.000; 0.00185; 0.00012
 789.82;   21.420;  -19.184;55552.473; 0.00243; 0.00016
 790.39;   31.222;  -20.284;55451.941; 0.00310; 0.00020
 790.96;    4.823;  -30.183;55430.816; 0.00212; 0.00014
 791.52;    3.024;  -42.683;55217.586; 0.00279; 0.00018
 792.09;   52.026;   20.717;55290.262; 0.00191; 0.00013
 792.66;   26.227;  -17.783;54793.531; 0.00272; 0.00018
 793.23;   85.228;   29.917;54894.703; 0.00343; 0.00023
 793.80;   21.830;  -20.883;54770.176; 0.00266; 0.00018
 794.37;   32.031;  -12.482;54456.648; 0.00279; 0.00019
 794.94;   25.132;  -15.882;54176.121; 0.00258; 0.00017
 795.51;   14.934;  -28.782;54046.492; 0.00277; 0.00018
 796.08;    5.235;  -24.282;53871.066; 0.00188; 0.00012
 796.65;    3.036;  -32.682;53578.039; 0.00229; 0.00015
 797.21;   56.238;   15.018;53301.109; 0.00265; 0.00018
 797.78;   26.939;   -2.581;52997.883; 0.00191; 0.00013
 798.35;   81.140;   21.219;52509.055; 0.00391; 0.00026
 798.92;  662.542;  513.919;52532.129; 0.00971; 0.00065
 799.49;    2.943;  -35.681;52089.301; 0.00255; 0.00017
 800.06;   61.744;   28.719;51915.273; 0.00219; 0.00015
 800.63;   56.246;   14.719;51659.145; 0.00277; 0.00019
 801.20;   21.147;   -5.981;51781.215; 0.00182; 0.00012
 801.76;   13.248;  -16.280;51808.391; 0.00199; 0.00013
 802.33;   30.950;  -19.980;51489.063; 0.00345; 0.00023
 802.90;   52.951;   13.720;51322.234; 0.00268; 0.00018
 803.47;   20.252;  -18.880;51648.906; 0.00267; 0.00018
 804.04;    1.154;  -35.980;51628.277; 0.00254; 0.00017
 804.61;   51.155;   19.920;51369.352; 0.00214; 0.00014
 805.17;    9.156;  -29.679;51365.223; 0.00268; 0.00018
 805.74;   -1.642;  -39.079;51444.695; 0.00258; 0.00017
 806.31;   34.359;   -5.479;51037.367; 0.00277; 0.00019
 806.88;  -25.240;  -54.379;51096.238; 0.00203; 0.00014
 807.45;  -32.938;  -68.279;50997.012; 0.00246; 0.00017
 808.01;   28.063;  -10.179;50947.582; 0.00267; 0.00018
 808.58;   88.364;   46.122;50841.555; 0.00297; 0.00020
 809.15;   22.666;   -2.878;50956.328; 0.00180; 0.00012
 809.72;   53.267;   -0.878;50689.500; 0.00385; 0.00026
 810.29;   40.868;  -17.978;50169.973; 0.00423; 0.00029
 810.85;   14.470;  -26.178;50108.844; 0.00294; 0.00020
 811.42;   13.671;  -28.178;49628.117; 0.00306; 0.00021
 811.99;    3.373;  -21.777;49373.191; 0.00185; 0.00013
 812.56;   -2.226;  -33.177;48973.660; 0.00231; 0.00016
 813.12;   38.475;   -3.077;48451.535; 0.00313; 0.00021
 813.69;   11.177;  -13.577;48256.105; 0.00188; 0.00013
 814.26;    7.478;  -20.277;47696.578; 0.00213; 0.00015
 814.83;   -6.921;  -31.777;47276.250; 0.00193; 0.00013
 815.39;  -23.219;  -59.377;47147.422; 0.00283; 0.00019
 815.96;   32.382;  -17.676;46894.797; 0.00395; 0.00027
 816.53;   85.383;   31.324;46686.770; 0.00430; 0.00029
 817.10;   -5.215;  -36.476;46572.539; 0.00251; 0.00017
 817.66;  -44.914;  -62.676;46288.414; 0.00143; 0.00010
 818.23;  -47.813;  -64.176;46067.184; 0.00133; 0.00009
 818.80;  -39.211;  -57.476;45888.656; 0.00149; 0.00010
 819.37;   15.990;  -14.975;45872.930; 0.00255; 0.00017
 819.93;  -23.309;  -52.875;45789.703; 0.00244; 0.00017
 820.50;  -50.707;  -60.375;45226.676; 0.00081; 0.00006
 821.07;  -27.206;  -53.175;45200.645; 0.00217; 0.00015
 821.63;  127.795;   55.925;44835.719; 0.00607; 0.00042
 822.20;   95.597;   64.025;44818.590; 0.00268; 0.00018
 822.77;   27.698;  -15.174;44641.164; 0.00366; 0.00025
 823.34;   14.399;  -35.774;44447.734; 0.00431; 0.00030
 823.90;  -17.199;  -36.574;44150.906; 0.00168; 0.00012
 824.47;   17.102;  -11.074;44035.379; 0.00245; 0.00017
 825.04;   -6.297;  -41.474;43910.254; 0.00308; 0.00021
 825.60;   -2.195;  -14.574;43882.324; 0.00109; 0.00008
 826.17;  -30.394;  -55.874;43471.496; 0.00227; 0.00016
 826.74;  -25.693;  -44.173;43311.770; 0.00165; 0.00011
 827.30;  -22.191;  -53.173;42923.641; 0.00278; 0.00019
 827.87;    3.210;  -20.273;42849.914; 0.00212; 0.00015
 828.43;   -1.289;  -26.873;42678.484; 0.00232; 0.00016
 829.00;  -18.087;  -65.173;42585.656; 0.00428; 0.00030
 829.57;   13.614;  -25.773;42440.332; 0.00360; 0.00025
 830.13;  -45.085;  -73.272;42015.703; 0.00259; 0.00018
 830.70;  -23.183;  -56.972;41864.375; 0.00311; 0.00022
 831.27;  -13.382;  -33.672;41474.148; 0.00189; 0.00013
 831.83;  -33.881;  -53.372;41387.020; 0.00182; 0.00013
 832.40;  -12.879;  -22.572;41185.090; 0.00091; 0.00006
 832.97;   51.322;    6.828;41002.664; 0.00420; 0.00029
 833.53;  -16.777;  -43.071;41077.836; 0.00249; 0.00017
 834.10;  -16.475;  -39.071;40836.008; 0.00215; 0.00015
 834.66;   -6.674;  -53.871;40648.781; 0.00452; 0.00032
 835.23;   -2.673;  -42.671;40573.055; 0.00384; 0.00027
 835.80;  -28.371;  -61.771;40440.824; 0.00323; 0.00023
 836.36;   -7.170;  -41.671;40334.199; 0.00335; 0.00023
 836.93;   17.432;  -18.970;40271.168; 0.00355; 0.00025
 837.49;   46.933;   18.630;40151.543; 0.00277; 0.00019
 838.06;   -3.966;  -28.470;40058.313; 0.00241; 0.00017
 838.62;   -3.664;  -48.070;39899.086; 0.00439; 0.00031
 839.19;   -5.163;  -37.770;39905.758; 0.00323; 0.00023
 839.76;  -22.362;  -32.870;39728.430; 0.00105; 0.00007
 840.32;  -42.960;  -66.470;39485.805; 0.00236; 0.00017
 840.89;  229.641;  172.031;39678.176; 0.00579; 0.00041
 841.45;   -7.458;  -25.669;39488.348; 0.00184; 0.00013
 842.02;  -41.356;  -76.369;39167.621; 0.00356; 0.00025
 842.58;  -30.955;  -50.069;39187.094; 0.00196; 0.00014
 843.15;   28.546;   -4.269;39180.465; 0.00337; 0.00024
 843.71;  -20.352;  -48.569;39060.836; 0.00290; 0.00020
 844.28;  -53.951;  -79.768;38864.809; 0.00267; 0.00019
 844.84;   10.550;  -21.268;38862.082; 0.00330; 0.00023
 845.41;  -15.248;  -51.168;38615.355; 0.00376; 0.00027
 845.97;  -27.247;  -56.768;38402.527; 0.00309; 0.00022
 846.54;  -19.146;  -51.168;38075.898; 0.00339; 0.00024
 847.10;  -11.344;  -35.168;38229.371; 0.00252; 0.00018
 847.67;  -33.043;  -58.667;37966.344; 0.00273; 0.00019
 848.23;  -16.242;  -48.767;38067.414; 0.00346; 0.00025
 848.80;    0.160;  -17.467;38042.086; 0.00188; 0.00013
 849.36;  -19.039;  -46.167;37738.262; 0.00292; 0.00021
 849.93;   -7.838;  -31.867;37655.934; 0.00261; 0.00019
 850.49;  -17.536;  -39.867;37582.004; 0.00243; 0.00017
 851.06;  -50.635;  -69.367;37505.277; 0.00204; 0.00015
 851.62;  -19.234;  -54.266;37262.051; 0.00386; 0.00027
 852.19;  -21.532;  -42.866;37233.020; 0.00235; 0.00017
 852.75;  -27.431;  -60.466;37155.895; 0.00366; 0.00026
 853.32;   -4.930;  -28.666;37105.266; 0.00264; 0.00019
 853.88;  -11.628;  -39.666;36902.438; 0.00315; 0.00022
 854.45;    6.273;  -18.166;37137.012; 0.00273; 0.00019
 855.01;   26.274;   -2.965;37010.383; 0.00328; 0.00023
 855.57;  -20.524;  -51.465;36921.453; 0.00349; 0.00025
 856.14;  -37.323;  -63.265;36626.629; 0.00295; 0.00021
 856.70;  -32.122;  -49.365;36714.199; 0.00196; 0.00014
 857.27;   -6.920;  -44.865;36510.172; 0.00435; 0.00031
 857.83;  -74.619;  -84.265;36357.344; 0.00111; 0.00008
 858.40;   38.582;   -2.264;36322.215; 0.00470; 0.00034
 858.96;  -20.016;  -44.364;36140.387; 0.00283; 0.00020
 859.52;    3.185;  -42.264;36171.262; 0.00527; 0.00038
 860.09;   -5.314;  -43.564;35921.734; 0.00447; 0.00032
 860.65;  -12.812;  -34.264;35764.504; 0.00251; 0.00018
 861.22;  -34.411;  -42.764;35727.977; 0.00098; 0.00007
 861.78;    2.491;  -17.363;35638.051; 0.00234; 0.00017
 862.34;  -19.708;  -50.163;35649.922; 0.00361; 0.00026
 862.91;  -12.007;  -41.863;35682.594; 0.00354; 0.00026
 863.47;  112.095;   60.137;35224.566; 0.00623; 0.00045
 864.03;  -29.304;  -59.263;35401.738; 0.00359; 0.00026
 864.60;   18.697;  -21.663;35293.512; 0.00485; 0.00035
 865.16;  -36.101;  -66.963;35132.184; 0.00374; 0.00027
 865.73;    0.200;  -31.262;35111.855; 0.00382; 0.00028
 866.29;  111.801;   71.938;35043.527; 0.00486; 0.00035
 866.85;  -37.997;  -70.162;34721.301; 0.00395; 0.00029
 867.42;  -15.296;  -40.162;34616.371; 0.00306; 0.00022
 867.98;  -38.395;  -64.262;34527.145; 0.00320; 0.00023
 868.54;   18.107;  -24.162;34441.617; 0.00524; 0.00038
 869.11;  -39.292;  -61.461;34366.289; 0.00276; 0.00020
 869.67;  -29.291;  -42.861;34234.863; 0.00170; 0.00012
 870.23;  -11.189;  -40.861;34228.133; 0.00374; 0.00027
 870.80;  -24.388;  -52.761;33878.707; 0.00362; 0.00026
 871.36;  -43.387;  -63.361;33584.379; 0.00257; 0.00019
 871.92;   49.915;    8.139;33514.352; 0.00542; 0.00039
 872.48;  -36.584;  -60.360;33352.023; 0.00310; 0.00023
 873.05;  -15.483;  -35.560;33107.297; 0.00264; 0.00019
 873.61;  -16.281;  -45.160;33006.969; 0.00381; 0.00028
 874.17;   -6.280;  -40.060;32897.238; 0.00448; 0.00033
 874.74;  -29.580;  -53.560;32747.340; 0.00319; 0.00023
 875.30;  -12.880;  -37.760;32872.738; 0.00332; 0.00024
 875.86;  -26.480;  -51.360;32962.238; 0.00332; 0.00024
 876.42;  -40.680;  -67.560;32924.941; 0.00360; 0.00026
 876.99;  -23.780;  -48.260;32876.039; 0.00329; 0.00024
 877.55;   -9.880;  -37.360;32981.738; 0.00368; 0.00027
 878.11;   -1.580;  -22.860;32831.238; 0.00287; 0.00021
 878.68;   -6.180;  -32.460;32682.740; 0.00355; 0.00026
 879.24;  -11.380;  -39.460;32631.039; 0.00381; 0.00028
 879.80;   10.020;  -20.160;32451.240; 0.00412; 0.00030
 880.36;  -19.480;  -46.060;32387.539; 0.00364; 0.00027
 880.92;   -1.180;  -26.660;32337.240; 0.00349; 0.00026
 881.49;   -5.480;  -40.960;32357.840; 0.00488; 0.00036
 882.05;  -12.180;  -23.460;32220.439; 0.00156; 0.00011
 882.61;   39.220;   10.040;32083.240; 0.00405; 0.00030
 883.17;  -22.980;  -41.360;32091.740; 0.00256; 0.00019
 883.74;  -15.380;  -34.960;32096.439; 0.00274; 0.00020
 884.30;  -39.780;  -64.260;31958.539; 0.00343; 0.00025
 884.86;   19.320;   -1.260;32176.439; 0.00288; 0.00021
 885.42;  -11.180;  -51.460;32150.439; 0.00566; 0.00042
 885.98;  -36.280;  -57.160;32145.740; 0.00292; 0.00022
 886.55;  -29.780;  -37.560;32321.740; 0.00109; 0.00008
 887.11;    8.420;  -30.260;32423.840; 0.00540; 0.00040
 887.67;  -15.880;  -20.460;32421.840; 0.00064; 0.00005
 888.23;  -22.680;  -65.360;32570.340; 0.00594; 0.00044
 888.79;   10.420;  -21.260;32596.740; 0.00441; 0.00033
 889.35;  -25.580;  -61.160;32642.240; 0.00495; 0.00037
 889.92;   16.320;  -17.060;32765.641; 0.00464; 0.00034
 890.48;  144.020;  103.240;32825.039; 0.00564; 0.00042
 891.04;  -14.680;  -43.860;32990.238; 0.00402; 0.00030
 891.60;  -42.380;  -53.960;33047.441; 0.00160; 0.00012
 892.16;   -1.880;  -20.360;33188.941; 0.00253; 0.00019
 892.72;  -25.780;  -52.660;33357.141; 0.00367; 0.00027
 893.29;  -43.680;  -67.860;33494.738; 0.00329; 0.00025
 893.85;  -39.180;  -38.260;33665.738;-0.00012;-0.00001
 894.41;  -56.580;  -50.860;33926.641;-0.00077;-0.00006
 894.97;   15.920;  -10.160;33988.340; 0.00352; 0.00026
 895.53;  -28.780;  -52.860;34219.238; 0.00324; 0.00024
 896.09;  -13.880;  -52.360;34269.340; 0.00515; 0.00039
 896.65;  -26.080;  -45.760;34260.641; 0.00264; 0.00020
 897.21;   -2.180;  -11.360;34229.039; 0.00124; 0.00009
 897.77;  -10.280;  -39.360;34355.941; 0.00391; 0.00029
 898.34;  -15.780;  -35.160;34076.141; 0.00262; 0.00020
 898.90;   17.020;  -22.960;33978.840; 0.00542; 0.00041
 899.46;   -1.480;  -22.260;34144.141; 0.00283; 0.00021
 900.02;   28.320;    5.240;33674.641; 0.00316; 0.00024
 900.58;   -2.580;  -25.260;33671.941; 0.00312; 0.00024
 901.14;   37.520;   11.740;33538.441; 0.00357; 0.00027
 901.70;    9.420;  -14.960;33275.141; 0.00340; 0.00026
 902.26;  -49.880;  -55.160;33006.840; 0.00074; 0.00006
 902.82;   25.720;   -4.560;33014.641; 0.00428; 0.00032
 903.38;  -19.980;  -45.360;32705.539; 0.00362; 0.00027
 903.94;   12.820;  -10.360;32674.340; 0.00333; 0.00025
 904.50;  -15.980;  -32.260;32451.039; 0.00235; 0.00018
 905.06;   -6.380;  -40.660;32229.039; 0.00498; 0.00038
 905.62;  -12.980;  -22.960;31916.439; 0.00146; 0.00011
 906.18;  -10.980;  -39.760;31805.539; 0.00424; 0.00032
 906.74;  -33.080;  -67.460;31546.039; 0.00512; 0.00039
 907.30;   41.120;   -3.160;31284.939; 0.00664; 0.00050
 907.86;   12.120;   -7.460;31088.240; 0.00296; 0.00022
 908.42;   38.020;   20.040;30928.240; 0.00273; 0.00021
 908.98;   30.920;    4.940;30791.240; 0.00398; 0.00030
 909.54;    2.320;  -10.960;30862.939; 0.00204; 0.00016
 910.10;   17.920;    7.340;30640.740; 0.00163; 0.00012
 910.66;   -0.580;  -22.660;30446.240; 0.00344; 0.00026
 911.22;   -1.880;  -22.860;30321.141; 0.00328; 0.00025
 911.78;  -51.280;  -62.760;29941.939; 0.00181; 0.00014
 912.34;   28.420;    0.540;29914.439; 0.00442; 0.00034
 912.90;   36.720;    8.240;29777.039; 0.00456; 0.00035
 913.46;  -33.080;  -57.660;29485.039; 0.00396; 0.00030
 914.02;  -19.180;  -50.860;29482.439; 0.00512; 0.00039
 914.58;  -12.780;  -34.560;29279.641; 0.00353; 0.00027
 915.14;  -15.880;  -39.560;29122.939; 0.00386; 0.00030
 915.70;  -14.480;  -26.460;29026.539; 0.00197; 0.00015
 916.26;    1.420;  -11.060;28810.641; 0.00206; 0.00016
 916.82;  -36.380;  -53.760;28635.939; 0.00289; 0.00022
 917.38;   29.920;   -4.360;28403.039; 0.00574; 0.00044
 917.94;  120.520;   77.740;28214.240; 0.00721; 0.00055
 918.50;  -24.080;  -43.160;28052.641; 0.00323; 0.00025
 919.06;   16.420;  -12.660;27890.340; 0.00496; 0.00038
 919.62;  -26.980;  -44.260;27654.439; 0.00298; 0.00023
 920.18;   -0.980;  -19.560;27634.840; 0.00320; 0.00025
 920.73;  -10.580;  -28.760;27550.340; 0.00315; 0.00024
 921.29;  -11.880;  -39.960;27017.641; 0.00491; 0.00038
 921.85;    0.520;  -19.360;27000.840; 0.00351; 0.00027
 922.41;  -40.580;  -48.960;26863.840; 0.00148; 0.00011
 922.97;  -14.180;  -28.260;26599.539; 0.00251; 0.00019
 923.53;   29.520;    6.840;26105.939; 0.00408; 0.00031
 924.09;  -29.080;  -39.960;26005.141; 0.00197; 0.00015
 924.65;  -19.480;  -44.460;25817.740; 0.00457; 0.00035
 925.21;  -26.480;  -38.360;25588.039; 0.00219; 0.00017
 925.76;  -20.280;  -37.160;25424.439; 0.00313; 0.00024
 926.32;   11.520;  -18.460;25229.539; 0.00559; 0.00043
 926.88;  -12.980;  -26.860;25060.340; 0.00260; 0.00020
 927.44;   -7.480;  -30.560;24711.039; 0.00438; 0.00034
 928.00;  135.420;  103.140;24361.641; 0.00618; 0.00048
 928.56;   -0.880;  -24.160;24109.539; 0.00449; 0.00035
 929.12;    6.020;  -22.460;23807.740; 0.00554; 0.00043
 929.67;   42.320;   11.240;23666.840; 0.00607; 0.00047
 930.23;  -30.780;  -44.060;23355.141; 0.00262; 0.00020
 930.79;   -1.580;  -22.260;22957.439; 0.00413; 0.00032
 931.35;   -5.780;  -33.760;22612.039; 0.00563; 0.00044
 931.91;  -25.180;  -43.460;22275.939; 0.00373; 0.00029
 932.46;    8.220;  -17.460;21815.141; 0.00531; 0.00041
 933.02;  -21.080;  -44.760;21264.539; 0.00496; 0.00039
 933.58;  -34.180;  -48.760;20844.740; 0.00312; 0.00024
 934.14;  -46.580;  -75.860;20402.141; 0.00638; 0.00050
 934.70;  -28.480;  -52.060;19642.840; 0.00528; 0.00041
 935.25;  -13.380;  -32.560;19307.439; 0.00438; 0.00034
 935.81;   71.320;   46.540;18676.840; 0.00585; 0.00046
 936.37;  -14.180;  -41.860;17979.240; 0.00674; 0.00053
 936.93;   37.420;    4.940;17501.539; 0.00819; 0.00064
 937.49;   -2.280;  -33.060;16906.439; 0.00807; 0.00063
 938.04;  -22.680;  -27.860;16194.840; 0.00142; 0.00011
 938.60;  -19.880;  -49.460;15755.940; 0.00838; 0.00066
 939.16;  -29.780;  -41.560;15186.640; 0.00346; 0.00027
 939.72;  -62.080;  -45.660;14717.140;-0.00499;-0.00039
 940.27;   37.820;    5.340;14265.840; 0.01020; 0.00080
 940.83;  -19.180;  -30.960;14046.340; 0.00379; 0.00030
 941.39;    5.020;  -21.960;13687.040; 0.00887; 0.00070
 941.94;  -44.380;  -74.960;13350.740; 0.01027; 0.00081
 942.50;   -9.180;  -32.560;13158.740; 0.00797; 0.00063
 943.06;   11.120;    5.340;13027.240; 0.00198; 0.00016
 943.62;   19.220;    9.540;12943.740; 0.00334; 0.00026
 944.17;    8.120;  -21.460;12754.540; 0.01027; 0.00081
 944.73;   54.120;   20.940;12761.440; 0.01151; 0.00091
 945.29;   24.020;  -10.860;12770.440; 0.01206; 0.00095
 945.84;  -34.280;  -58.560;12694.340; 0.00838; 0.00066
 946.40;  -39.680;  -63.660;12711.140; 0.00818; 0.00065
 946.96;   16.520;    1.240;12656.240; 0.00520; 0.00041
 947.52;  -21.680;  -40.660;12695.840; 0.00642; 0.00051
 948.07;  -10.380;  -35.260;12718.240; 0.00833; 0.00066
 948.63;   48.820;   21.340;12818.540; 0.00911; 0.00072
 949.19;  -12.280;  -30.760;12749.440; 0.00607; 0.00048
 949.74;  -63.680;  -80.460;12760.940; 0.00546; 0.00043
 950.30;    0.820;  -30.260;12769.340; 0.01001; 0.00080
 950.85;   15.620;  -22.260;12864.940; 0.01211; 0.00096
 951.41;  -32.180;  -58.160;12893.340; 0.00822; 0.00065
 951.97;   19.920;    5.540;12921.640; 0.00450; 0.00036
 952.52;   -2.180;  -11.260;12865.640; 0.00282; 0.00022
 953.08;  -15.880;  -37.660;12883.640; 0.00671; 0.00053
 953.64;   -2.580;  -29.560;12846.440; 0.00825; 0.00066
 954.19;   15.520;   -1.760;12893.040; 0.00523; 0.00042
 954.75;   36.320;   10.140;12872.140; 0.00789; 0.00063
 955.31;   33.420;    8.440;12867.940; 0.00746; 0.00060
 955.86;  -26.480;  -51.160;12774.540; 0.00733; 0.00059
 956.42;  -27.380;  -47.560;12672.940; 0.00598; 0.00048
 956.97;  -23.680;  -60.260;12694.140; 0.01078; 0.00086
 957.53;   -9.280;  -30.260;12611.240; 0.00619; 0.00050
 958.09;   -1.080;  -20.760;12552.340; 0.00578; 0.00046
 958.64;  -14.480;  -20.260;12570.040; 0.00169; 0.00014
 959.20;    0.420;  -21.960;12548.940; 0.00650; 0.00052
 959.75;  -19.280;  -29.960;12427.440; 0.00311; 0.00025
 960.31;  -12.780;  -33.860;12418.840; 0.00611; 0.00049
 960.86;   58.220;   19.440;12464.640; 0.01122; 0.00090
 961.42;  -16.680;  -29.560;12414.340; 0.00373; 0.00030
 961.98;  -28.180;  -50.460;12345.240; 0.00646; 0.00052
 962.53;  -12.080;  -42.460;12397.740; 0.00882; 0.00071
 963.09;   52.020;   11.640;12366.040; 0.01167; 0.00094
 963.64;   18.820;    6.040;12375.340; 0.00370; 0.00030
 964.20;  -42.380;  -62.260;12267.840; 0.00576; 0.00046
 964.75;   -9.480;  -24.260;12291.440; 0.00430; 0.00035
 965.31;  -45.180;  -74.160;12248.040; 0.00844; 0.00068
 965.86;  -10.980;  -36.360;12229.140; 0.00739; 0.00060
 966.42;   38.420;   34.440;12234.340; 0.00117; 0.00009
 966.97;   32.320;    3.540;12259.840; 0.00841; 0.00068
 967.53;  -20.680;  -22.060;12095.440; 0.00041; 0.00003
 968.08;  -26.080;  -47.460;12157.440; 0.00629; 0.00051
 968.64;   26.820;   -7.160;12042.340; 0.01006; 0.00081
 969.19;   23.420;   -3.160;12075.540; 0.00789; 0.00064
 969.75;   34.720;   14.040;12006.840; 0.00613; 0.00050
 970.30;   19.820;   -8.460;12064.140; 0.00842; 0.00068
 970.86;   20.120;   -6.260;11971.840; 0.00787; 0.00064
 971.41;    3.020;  -25.960;11845.240; 0.00874; 0.00071
 971.97;   10.520;  -14.860;11835.640; 0.00765; 0.00062
 972.52;  -35.580;  -55.660;11665.740; 0.00609; 0.00050
 973.08;   26.520;   18.540;11714.240; 0.00243; 0.00020
 973.63;   68.720;   39.540;11663.040; 0.00892; 0.00073
 974.19;   18.720;   -9.060;11593.140; 0.00854; 0.00070
 974.74;   -9.980;  -14.360;11666.640; 0.00135; 0.00011
 975.29;  270.420;  203.340;11620.240; 0.02080; 0.00170
 975.85;   51.920;   32.040;11558.040; 0.00619; 0.00050
 976.40;   39.620;    8.740;11484.040; 0.00972; 0.00079
 976.96;   29.020;    4.240;11406.940; 0.00784; 0.00064
 977.51;   -9.880;  -29.860;11398.840; 0.00634; 0.00052
 978.07;  -10.680;  -31.760;11290.240; 0.00673; 0.00055
 978.62;   15.020;    1.440;11281.240; 0.00437; 0.00036
 979.17;  369.820;  273.840;11228.340; 0.03099; 0.00254
 979.73;  -26.580;  -36.360;11150.440; 0.00319; 0.00026
 980.28;   13.220;    6.440;11178.640; 0.00221; 0.00018
 980.84;   23.020;    7.040;11049.840; 0.00526; 0.00043
 981.39;  -21.180;  -30.960;11067.040; 0.00324; 0.00027
 981.94;   13.920;    4.640;10985.940; 0.00309; 0.00025
 982.50;   25.120;  -14.560;10875.540; 0.01332; 0.00109
 983.05;   12.820;   -3.160;10793.640; 0.00540; 0.00044
 983.60;   69.620;   45.340;10866.340; 0.00823; 0.00068
 984.16;   44.220;   18.140;10723.040; 0.00896; 0.00074
 984.71;   15.420;    0.140;10737.640; 0.00526; 0.00043
 985.27;   -0.380;  -30.160;10610.940; 0.01039; 0.00086
 985.82;   19.320;    5.540;10600.940; 0.00483; 0.00040
 986.37;   32.220;   20.340;10579.940; 0.00420; 0.00035
 986.93;   16.620;   -7.560;10493.140; 0.00860; 0.00071
 987.48;  -27.980;  -38.060;10429.940; 0.00361; 0.00030
 988.03;    5.120;  -12.360;10433.640; 0.00630; 0.00052
 988.59;  -10.680;  -21.760;10379.140; 0.00401; 0.00033
 989.14;   21.320;   -6.160;10316.040; 0.01010; 0.00083
 989.69;  -19.480;  -20.160;10319.540; 0.00025; 0.00002
 990.24;    3.620;  -22.960;10192.540; 0.00993; 0.00082
 990.80;  -27.880;  -35.660;10144.240; 0.00293; 0.00024
 991.35;  -33.980;  -51.160;10015.240; 0.00652; 0.00054
 991.90;   22.420;    1.340;10114.540; 0.00803; 0.00067
 992.46;    8.720;  -37.460;10020.740; 0.01780; 0.00148
 993.01;  -23.480;  -36.260; 9927.640; 0.00496; 0.00041
 993.56;  167.120;  119.940; 9917.940; 0.01850; 0.00154
 994.11;   -6.780;  -11.460; 9840.440; 0.00185; 0.00015
 994.67;  -17.980;  -21.260; 9785.640; 0.00131; 0.00011
 995.22;  -20.280;  -30.460; 9703.340; 0.00410; 0.00034
 995.77;  -18.980;  -38.960; 9635.340; 0.00812; 0.00068
 996.33;    2.620;   -4.560; 9637.840; 0.00294; 0.00024
 996.88;   -9.680;  -27.760; 9517.540; 0.00745; 0.00062
 997.43;  -23.080;  -28.760; 9472.340; 0.00237; 0.00020
 997.98;   33.820;    3.140; 9370.640; 0.01295; 0.00108
 998.53;   37.520;   21.740; 9336.240; 0.00673; 0.00056
 999.09;  -16.080;  -30.660; 9233.940; 0.00629; 0.00052
 999.64;  -22.980;  -51.060; 9121.140; 0.01222; 0.00102
1000.19;   -9.380;  -44.160; 9086.640; 0.01528; 0.00128
1000.74;  -46.580;  -57.060; 9052.540; 0.00467; 0.00039
1001.30;  -12.980;  -19.160; 8993.240; 0.00278; 0.00023
1001.85;    0.720;  -25.660; 8888.440; 0.01200; 0.00100
1002.40;  -31.980;  -49.260; 8808.140; 0.00798; 0.00067
1002.95;   24.520;    2.840; 8765.740; 0.01012; 0.00085
1003.50;   47.620;   15.340; 8714.040; 0.01535; 0.00129
1004.06;    1.920;  -28.160; 8593.740; 0.01457; 0.00122
1004.61;  153.320;  109.140; 8532.040; 0.02175; 0.00183
1005.16;  193.820;  142.040; 8522.340; 0.02580; 0.00217
1005.71;   25.020;   -2.660; 8537.740; 0.01394; 0.00117
1006.26;  -21.980;  -31.660; 8503.640; 0.00494; 0.00042
1006.81;  -42.580;  -57.860; 8549.940; 0.00785; 0.00066
1007.37;    1.520;  -12.460; 8518.340; 0.00727; 0.00061
1007.92;  -29.880;  -58.960; 8547.040; 0.01515; 0.00128
1008.47;   17.720;   -9.560; 8650.340; 0.01419; 0.00120
1009.02;    9.320;  -14.960; 8730.740; 0.01264; 0.00107
1009.57;   33.820;    5.940; 8770.540; 0.01436; 0.00121
1010.12;  -51.280;  -70.360; 8819.940; 0.00970; 0.00082
1010.67;   14.920;   -4.160; 8938.440; 0.00950; 0.00080
1011.22;   22.920;    5.640; 9023.540; 0.00842; 0.00071
1011.78;  -21.680;  -42.460; 9062.440; 0.00994; 0.00084
1012.33;  -27.780;  -45.560; 9068.940; 0.00836; 0.00071
1012.88;   50.020;   28.740; 9182.740; 0.00989; 0.00084
1013.43;   11.920;  -11.760; 9165.640; 0.01099; 0.00093
1013.98;   20.220;    6.840; 9256.140; 0.00622; 0.00053
1014.53;  -21.480;  -34.460; 9202.140; 0.00610; 0.00052
1015.08;  -26.780;  -44.660; 9159.840; 0.00851; 0.00072
1015.63;  -18.780;  -38.860; 9075.540; 0.00974; 0.00083
1016.18;  -32.980;  -49.160; 9064.740; 0.00797; 0.00068
1016.73;   26.920;    1.040; 8920.440; 0.01306; 0.00111
1017.28;  106.120;   59.040; 8837.240; 0.02421; 0.00206
1017.84;   -6.780;  -23.560; 8738.740; 0.00876; 0.00075
1018.39;    0.020;  -27.260; 8609.540; 0.01457; 0.00124
1018.94;  -26.080;  -47.760; 8503.540; 0.01177; 0.00100
1019.49;   38.420;   14.140; 8362.940; 0.01350; 0.00115
1020.04;   72.020;   26.240; 8286.340; 0.02591; 0.00221
1020.59;  -10.580;  -34.360; 8098.540; 0.01373; 0.00117
1021.14;  -13.280;  -19.960; 8089.340; 0.00392; 0.00033
1021.69;  -17.780;  -47.960; 7874.640; 0.01802; 0.00154
1022.24;   -3.880;  -27.460; 7839.140; 0.01432; 0.00122
1022.79;   23.520;   11.940; 7670.040; 0.00714; 0.00061
1023.34;   -4.180;  -24.560; 7596.740; 0.01278; 0.00109
1023.89;   -8.280;  -12.960; 7513.240; 0.00300; 0.00026
1024.44;    0.220;  -15.060; 7382.240; 0.00992; 0.00085
1024.99;   28.420;    0.040; 7310.940; 0.01873; 0.00160
1025.54;   68.120;   33.840; 7213.140; 0.02293; 0.00197
1026.09;  -19.280;  -34.860; 7156.540; 0.01058; 0.00091
1026.64;  -18.980;  -36.260; 7033.140; 0.01197; 0.00103
1027.19;   20.020;    6.240; 6951.540; 0.00972; 0.00083
1027.74;   -7.480;  -25.360; 6898.540; 0.01276; 0.00110
1028.29;  -13.780;  -39.360; 6785.340; 0.01865; 0.00160
1028.84;   83.620;   41.840; 6689.140; 0.03090; 0.00266
1029.39;   33.420;    3.440; 6693.440; 0.02237; 0.00192
1029.94;  -18.680;  -45.260; 6563.140; 0.02025; 0.00174
1030.48;  -33.780;  -47.960; 6489.840; 0.01091; 0.00094
1031.03;  -39.280;  -33.460; 6408.040;-0.00459;-0.00040
1031.58;   17.720;   -4.360; 6390.940; 0.01761; 0.00152
1032.13;  -34.080;  -46.760; 6251.740; 0.01029; 0.00089
1032.68;    0.820;  -40.060; 6173.540; 0.03374; 0.00291
1033.23;   -9.180;  -40.760; 6056.340; 0.02634; 0.00227
1033.78;  -11.880;  -34.060; 5982.840; 0.01883; 0.00163
1034.33;   -2.180;  -18.960; 5956.340; 0.01445; 0.00125
1034.88;   44.320;   24.240; 5884.440; 0.01753; 0.00152
1035.43;  -35.680;  -43.260; 5797.040; 0.00674; 0.00058
1035.98;  -10.280;  -24.560; 5726.840; 0.01289; 0.00112
1036.52;   20.020;   -7.860; 5703.140; 0.02553; 0.00221
1037.07;   14.520;   12.340; 5634.340; 0.00203; 0.00018
1037.62;   21.920;   -7.260; 5538.840; 0.02753; 0.00239
1038.17;  116.420;   72.140; 5465.440; 0.04241; 0.00368
1038.72;  -12.680;  -21.960; 5419.540; 0.00904; 0.00078
1039.27;  -12.980;  -19.060; 5313.940; 0.00603; 0.00052
1039.82;   15.520;   -9.760; 5277.140; 0.02553; 0.00222
1040.37;  -33.080;  -47.360; 5173.340; 0.01462; 0.00127
1040.91;  -28.080;  -44.660; 5135.140; 0.01723; 0.00150
1041.46;  -14.980;  -29.060; 5014.240; 0.01492; 0.00130
1042.01;  -33.180;  -49.760; 4962.740; 0.01780; 0.00155
1042.56;   -8.080;  -31.860; 4871.240; 0.02602; 0.00227
1043.11;    7.820;   -9.360; 4860.340; 0.01902; 0.00166
1043.66;   46.520;   24.240; 4779.540; 0.02511; 0.00219
1044.20;   21.820;    2.340; 4738.440; 0.02235; 0.00195
1044.75;   43.220;   14.740; 4683.040; 0.03324; 0.00290
1045.30;   61.220;   24.540; 4585.740; 0.04348; 0.00380
1045.85;   -9.080;  -25.760; 4510.240; 0.02008; 0.00176
1046.40;  -31.080;  -35.760; 4447.940; 0.00574; 0.00050
1046.94;  -18.980;  -26.260; 4426.440; 0.00908; 0.00079
1047.49;   17.720;  -23.660; 4272.140; 0.05250; 0.00460
1048.04;   58.620;   37.540; 4311.640; 0.02701; 0.00237
1048.59;  -17.780;  -42.360; 4233.240; 0.03217; 0.00282
1049.13;  129.120;   81.140; 4211.040; 0.06386; 0.00560
1049.68;  -36.480;  -49.960; 4059.940; 0.01837; 0.00161
1050.23;   13.720;   -0.060; 4062.640; 0.01896; 0.00166
1050.78;  -31.480;  -55.560; 3990.540; 0.03367; 0.00296
1051.32;  -20.380;  -29.060; 3946.840; 0.01234; 0.00108
1051.87;  257.620;  172.040; 3869.840; 0.12413; 0.01091
1052.42;    4.120;  -12.460; 3825.340; 0.02446; 0.00215
1052.97;  208.420;  152.740; 3792.340; 0.08297; 0.00730
1053.51;   -2.580;  -20.360; 3734.840; 0.02698; 0.00238
1054.06;   37.020;   16.740; 3661.740; 0.03120; 0.00275
1054.61;   19.320;    5.140; 3613.040; 0.02230; 0.00197
1055.16;  -15.080;  -44.160; 3555.440; 0.04617; 0.00407
1055.70;   -1.380;  -25.860; 3441.340; 0.03992; 0.00352
1056.25;  -40.580;  -59.060; 3388.740; 0.03069; 0.00271
1056.80;    8.720;  -37.360; 3359.040; 0.07748; 0.00684
1057.34;  -24.980;  -46.760; 3323.340; 0.03721; 0.00329
1057.89;  -22.980;  -38.760; 3294.340; 0.02735; 0.00242
1058.44;   17.420;    3.040; 3243.440; 0.02530; 0.00224
1058.98;  -28.480;  -34.660; 3181.040; 0.01110; 0.00098
1059.53;    3.920;  -18.360; 3089.840; 0.04071; 0.00361
1060.08;    2.620;  -21.560; 3095.640; 0.04498; 0.00399
1060.62;  107.520;   80.440; 3037.940; 0.05098; 0.00452
1061.17;  -30.480;  -35.060; 2981.040; 0.00878; 0.00078
1061.72;   -8.780;  -17.560; 2925.640; 0.01715; 0.00152
1062.26;   32.220;    0.640; 2887.140; 0.06281; 0.00558
1062.81;   16.120;    2.640; 2868.640; 0.02739; 0.00243
1063.36;   18.420;   -3.960; 2810.640; 0.04611; 0.00410
1063.90;   22.820;    2.840; 2776.140; 0.04201; 0.00374
1064.45;    6.120;  -15.760; 2733.940; 0.04679; 0.00416
1064.99;   -5.080;  -21.260; 2665.640; 0.03526; 0.00314
1065.54;    0.720;  -27.260; 2665.140; 0.06197; 0.00552
1066.09;   25.820;    1.540; 2624.740; 0.05476; 0.00488
1066.63;    8.420;   -4.460; 2613.240; 0.02943; 0.00262
1067.18;   73.620;   50.140; 2546.940; 0.05493; 0.00490
1067.72;   21.320;   -8.860; 2507.940; 0.07167; 0.00640
1068.27;  -13.580;  -31.060; 2435.040; 0.04204; 0.00375
1068.82;   42.520;   24.740; 2427.340; 0.04353; 0.00389
1069.36;   14.920;   -1.560; 2384.540; 0.04099; 0.00366
1069.91;  -10.480;  -27.160; 2395.540; 0.04192; 0.00375
1070.45;    1.620;   -9.660; 2355.540; 0.02888; 0.00258
1071.00;  -26.380;  -43.760; 2277.640; 0.04507; 0.00403
1071.54;   -6.780;  -14.260; 2266.040; 0.01974; 0.00177
1072.09;   89.720;   61.540; 2286.540; 0.07560; 0.00677
1072.64;    5.720;   -2.360; 2225.240; 0.02207; 0.00198
1073.18;  111.320;   75.840; 2212.340; 0.09768; 0.00876
1073.73;  163.120;  126.340; 2142.340; 0.10310; 0.00925
1074.27;   -4.980;  -35.860; 2113.340; 0.08734; 0.00784
1074.82;   51.920;    9.440; 2108.140; 0.12225; 0.01098
1075.36;   51.520;    9.140; 2087.140; 0.12398; 0.01114
1075.91;   29.120;    4.140; 2074.740; 0.07408; 0.00666
1076.45;   27.520;   13.340; 2031.240; 0.04256; 0.00383
1077.00;   12.620;  -14.560; 1990.740; 0.08276; 0.00745
1077.54;   44.220;   19.840; 2002.540; 0.07545; 0.00679
1078.09;   37.420;   22.840; 1946.540; 0.04558; 0.00411
1078.63;    6.820;  -33.660; 1925.340; 0.12838; 0.01157
1079.18;    2.620;  -25.660; 1902.340; 0.09122; 0.00823
1079.72;   38.220;    8.540; 1872.140; 0.09683; 0.00874
1080.27;    0.920;  -28.260; 1833.740; 0.09677; 0.00874
1080.81;   -4.580;  -27.660; 1806.540; 0.07749; 0.00700
1081.36;  -33.080;  -49.360; 1759.940; 0.05561; 0.00503
1081.90;   71.820;   47.640; 1773.640; 0.08363; 0.00756
1082.44;   42.620;   23.340; 1742.540; 0.06788; 0.00614
1082.99;   45.420;   14.540; 1720.040; 0.10997; 0.00995
1083.53;   12.620;  -15.760; 1669.840; 0.10268; 0.00930
1084.08;   38.220;   12.140; 1694.940; 0.09556; 0.00866
1084.62;   29.820;   11.540; 1650.140; 0.06818; 0.00618
1085.17;   20.620;   -6.960; 1644.640; 0.10332; 0.00937
1085.71;   -6.480;  -16.460; 1604.940; 0.03797; 0.00345
1086.25;   26.820;   13.040; 1614.040; 0.05333; 0.00484
1086.80;   30.720;   10.940; 1558.740; 0.07797; 0.00708
1087.34;    6.520;    0.740; 1549.140; 0.02300; 0.00209
1087.89;    2.220;  -21.460; 1518.340; 0.09559; 0.00869
1088.43;   26.520;   12.440; 1515.840; 0.05758; 0.00524
1088.97;   17.420;    3.040; 1494.940; 0.05968; 0.00543
1089.52;  216.420;  167.440; 1492.140; 0.20629; 0.01879
1090.06;  100.220;   65.840; 1451.240; 0.14657; 0.01335
1090.61;   26.720;    6.040; 1435.740; 0.08988; 0.00819
1091.15;  185.320;  140.040; 1394.140; 0.19997; 0.01824
1091.69;   32.120;   17.840; 1365.740; 0.06399; 0.00584
1092.24;   29.620;    9.140; 1368.940; 0.09315; 0.00850
1092.78;   45.120;   28.540; 1337.940; 0.07688; 0.00702
1093.32;   38.820;   11.840; 1350.740; 0.12501; 0.01142
1093.87;   51.220;   16.840; 1327.440; 0.16313; 0.01491
1094.41;   -3.680;  -11.260; 1272.140; 0.03643; 0.00333
1094.95;  153.220;  110.440; 1282.440; 0.20783; 0.01902
1095.50;   -7.680;  -27.860; 1250.140; 0.10028; 0.00918
1096.04;   49.120;   45.340; 1268.140; 0.01892; 0.00173
1096.58;  168.920;  134.540; 1217.440; 0.17463; 0.01600
1097.13;  -17.080;  -25.860; 1182.740; 0.04513; 0.00414
1097.67;   83.020;   49.940; 1204.340; 0.17306; 0.01588
1098.21;    2.720;  -16.960; 1162.040; 0.10423; 0.00957
1098.76;    6.620;   -2.160; 1142.840; 0.04718; 0.00433
1099.30;   12.320;  -14.060; 1130.140; 0.14318; 0.01316
1099.84;   -1.080;  -25.760; 1116.240; 0.13623; 0.01252
1100.38;   39.320;   25.840; 1094.240; 0.07534; 0.00693

