
Integration time [ms]: 500.000
Averaging Nr. [scans]: 10
Smoothing Nr. [pixels]: 0
Data measured with spectrometer [name]: 1901096U1
Wave   ;Sample   ;Dark     ;Reference;Absolute Irradiance  ;Photon Counts
[nm]   ;[counts] ;[counts] ;[counts] ;[µWatt/cm?/nm]       ;[µMol/s/m?/nm]

 155.82;  216.270;  220.336;   69.357; 0.00000; 0.00000
 156.42;  251.102;  239.240;   98.706; 0.00000; 0.00000
 157.03;  223.704;  223.041;   92.018; 0.00000; 0.00000
 157.63;  207.098;  212.140;   78.786; 0.00000; 0.00000
 158.23;  236.196;  215.440;   94.680; 0.00000; 0.00000
 158.84;  226.716;  233.042;  119.574; 0.00000; 0.00000
 159.44;  230.190;  229.939;   82.550; 0.00000; 0.00000
 160.04;  241.781;  233.638;  102.110; 0.00000; 0.00000
 160.64;  305.089;  291.439;   93.044; 0.00000; 0.00000
 161.25;  251.105;  242.041;  112.923; 0.00000; 0.00000
 161.85;  266.796;  250.139;  109.378; 0.00000; 0.00000
 162.45;  231.581;  214.738;   90.607; 0.00000; 0.00000
 163.06;  266.188;  268.439;   94.943; 0.00000; 0.00000
 163.66;  262.610;  254.041;   96.745; 0.00000; 0.00000
 164.26;  222.362;  228.235;   70.019; 0.00000; 0.00000
 164.86;  224.467;  223.836;  112.245; 0.00000; 0.00000
 165.47;  252.218;  222.006;  144.771; 0.00000; 0.00000
 166.07;  248.806;  227.405;  171.417; 0.00000; 0.00000
 166.67;  246.200;  221.004;  157.886; 0.00000; 0.00000
 167.27;  256.012;  227.505;  165.443; 0.00000; 0.00000
 167.88;  261.399;  243.204;  176.084; 0.00000; 0.00000
 168.48;  299.185;  270.602;  149.416; 0.00000; 0.00000
 169.08;  277.395;  255.003;  149.165; 0.00000; 0.00000
 169.68;  278.029;  266.507;  196.226; 0.00000; 0.00000
 170.29;  306.085;  279.502;  174.114; 0.00000; 0.00000
 170.89;  276.098;  246.104;  182.177; 0.00000; 0.00000
 171.49;  278.996;  267.103;  158.870; 0.00000; 0.00000
 172.09;  267.301;  243.304;  197.793; 0.00000; 0.00000
 172.70;  266.971;  241.700;  178.950; 0.00000; 0.00000
 173.30;  343.284;  312.302;  192.313; 0.00000; 0.00000
 173.90;  228.858;  227.899;  149.290; 0.00000; 0.00000
 174.50;  377.571;  342.200;  169.250; 0.00000; 0.00000
 175.11;  344.081;  290.801;  178.397; 0.00000; 0.00000
 175.71;  223.008;  202.005;  163.326; 0.00000; 0.00000
 176.31;  235.204;  201.904;  157.407; 0.00000; 0.00000
 176.91;  237.876;  218.401;  166.476; 0.00000; 0.00000
 177.51;  255.668;  227.000;  169.037; 0.00000; 0.00000
 178.12;  327.775;  302.301;  189.172; 0.00000; 0.00000
 178.72;  312.394;  269.103;  188.859; 0.00000; 0.00000
 179.32;  313.378;  283.101;  182.185; 0.00000; 0.00000
 179.92;  247.877;  227.101;  182.480; 0.00000; 0.00000
 180.52;  378.508;  333.605;  194.824; 0.00000; 0.00000
 181.13;  278.458;  252.699;  169.191; 0.00000; 0.00000
 181.73;  261.287;  213.902;  204.825; 0.00000; 0.00000
 182.33;  275.058;  243.799;  191.492; 0.00000; 0.00000
 182.93;  253.465;  233.800;  210.121; 0.00000; 0.00000
 183.54;  214.142;  182.997;  146.515; 0.00000; 0.00000
 184.14;  234.188;  204.202;  159.832; 0.00000; 0.00000
 184.74;  326.087;  274.302;  211.228; 0.00000; 0.00000
 185.34;  254.710;  224.105;  232.734; 0.12512; 0.00194
 185.94;  277.361;  259.299;  205.003; 0.08937; 0.00139
 186.54;  265.591;  238.903;  234.146; 0.11967; 0.00187
 187.15;  218.876;  203.901;  218.473; 0.07216; 0.00113
 187.75;  342.317;  294.206;  238.667; 0.14509; 0.00228
 188.35;  307.661;  278.399;  236.604; 0.11507; 0.00181
 188.95;  223.600;  208.004;  223.885; 0.05110; 0.00081
 189.55;  206.868;  171.400;  204.335; 0.13484; 0.00214
 190.16;  293.071;  253.900;  250.453; 0.15133; 0.00241
 190.76;  240.355;  196.298;  231.976; 0.15659; 0.00250
 191.36;  294.462;  260.299;  258.608; 0.11777; 0.00188
 191.96;  247.589;  216.002;  282.334; 0.08517; 0.00137
 192.56;  230.963;  216.599;  277.413; 0.04079; 0.00066
 193.16;  264.553;  222.298;  299.568; 0.13018; 0.00210
 193.77;  321.333;  280.796;  305.671; 0.14723; 0.00238
 194.37;  228.780;  198.501;  293.691; 0.07967; 0.00129
 194.97;  215.263;  197.299;  303.214; 0.04610; 0.00075
 195.57;  231.700;  200.904;  323.385; 0.05783; 0.00095
 196.17;  279.429;  239.195;  329.855; 0.14771; 0.00242
 196.77;  232.765;  201.800;  362.624; 0.07570; 0.00124
 197.38;  227.562;  209.299;  385.309; 0.04277; 0.00071
 197.98;  306.044;  255.797;  391.422; 0.13572; 0.00225
 198.58;  256.388;  235.002;  441.930; 0.04346; 0.00072
 199.18;  205.482;  185.202;  429.902; 0.04077; 0.00068
 199.78;  324.332;  269.496;  456.870; 0.18869; 0.00315
 200.38;  260.870;  239.300;  499.846; 0.04534; 0.00076
 200.98;  206.979;  178.001;  502.986; 0.05104; 0.00086
 201.59;  274.435;  215.408;  611.653; 0.07534; 0.00127
 202.19;  222.812;  224.805;  605.646;-0.00288;-0.00005
 202.79;  215.270;  197.500;  587.448; 0.03461; 0.00059
 203.39;  199.278;  161.601;  644.186; 0.07080; 0.00120
 203.99;  241.892;  222.003;  740.949; 0.03038; 0.00052
 204.59;  249.284;  222.002;  733.510; 0.04551; 0.00078
 205.19;  239.558;  216.999;  796.291; 0.05146; 0.00088
 205.79;  246.486;  207.602;  825.824; 0.06423; 0.00110
 206.40;  211.980;  198.301;  875.395; 0.02322; 0.00040
 207.00;  262.690;  228.303;  907.041; 0.05417; 0.00094
 207.60;  229.681;  190.601;  928.798; 0.06421; 0.00111
 208.20;  227.814;  203.105; 1019.353; 0.03138; 0.00055
 208.80;  203.018;  193.206; 1029.973; 0.01228; 0.00021
 209.40;  233.441;  199.209; 1141.880; 0.03612; 0.00063
 210.00;  230.385;  202.402; 1124.417; 0.03981; 0.00070
 210.60;  226.597;  201.703; 1170.175; 0.03192; 0.00056
 211.20;  300.694;  273.303; 1254.557; 0.03531; 0.00062
 211.81;  181.892;  153.303; 1237.652; 0.03649; 0.00065
 212.41;  224.227;  190.407; 1355.714; 0.03305; 0.00059
 213.01;  220.049;  189.210; 1400.416; 0.02536; 0.00045
 213.61;  213.408;  172.005; 1399.523; 0.04237; 0.00076
 214.21;  208.219;  181.706; 1517.477; 0.02438; 0.00044
 214.81;  201.332;  185.208; 1599.136; 0.01322; 0.00024
 215.41;  263.617;  224.406; 1677.966; 0.03712; 0.00067
 216.01;  272.216;  255.406; 1747.260; 0.01487; 0.00027
 216.61;  254.362;  220.499; 1794.906; 0.04591; 0.00083
 217.21;  245.242;  218.909; 1900.484; 0.01809; 0.00033
 217.81;  191.753;  167.410; 1966.536; 0.01426; 0.00026
 218.41;  226.036;  187.108; 2070.058; 0.02596; 0.00047
 219.02;  189.755;  188.510; 2134.247; 0.00069; 0.00001
 219.62;  229.623;  209.407; 2229.697; 0.01338; 0.00025
 220.22;  236.224;  200.407; 2296.000; 0.02198; 0.00040
 220.82;  198.943;  178.909; 2396.090; 0.01031; 0.00019
 221.42;  213.749;  197.310; 2534.516; 0.00775; 0.00014
 222.02;  204.240;  170.809; 2602.876; 0.01580; 0.00029
 222.62;  178.238;  160.508; 2644.667; 0.00827; 0.00015
 223.22;  211.936;  179.408; 2747.058; 0.01674; 0.00031
 223.82;  189.137;  180.408; 2851.961; 0.00418; 0.00008
 224.42;  236.232;  216.608; 2979.536; 0.00872; 0.00016
 225.02;  218.636;  189.208; 3070.857; 0.01204; 0.00023
 225.62;  204.369;  170.212; 3154.212; 0.01112; 0.00021
 226.22;  218.649;  190.210; 3251.918; 0.01063; 0.00020
 226.82;  230.242;  178.409; 3374.683; 0.02132; 0.00040
 227.42;  224.308;  191.205; 3459.925; 0.01688; 0.00032
 228.02;  234.213;  208.305; 3557.146; 0.01162; 0.00022
 228.62;  178.352;  137.910; 3720.333; 0.01451; 0.00028
 229.22;  261.158;  235.611; 3822.360; 0.00800; 0.00015
 229.82;  201.383;  177.202; 3910.707; 0.01400; 0.00027
 230.43;  216.545;  202.209; 4060.498; 0.00471; 0.00009
 231.03;  218.214;  170.305; 4165.853; 0.01895; 0.00037
 231.63;  204.709;  166.305; 4299.932; 0.01507; 0.00029
 232.23;  200.222;  184.506; 4439.690; 0.00563; 0.00011
 232.83;  194.627;  186.107; 4570.914; 0.00278; 0.00005
 233.43;  236.931;  198.208; 4679.232; 0.01211; 0.00024
 234.03;  202.932;  174.508; 4822.739; 0.00812; 0.00016
 234.63;  167.251;  146.210; 4963.625; 0.00522; 0.00010
 235.23;  207.146;  189.309; 5087.302; 0.00443; 0.00009
 235.83;  208.019;  175.706; 5158.578; 0.00965; 0.00019
 236.43;  234.294;  189.403; 5238.061; 0.01542; 0.00030
 237.03;  215.617;  175.506; 5367.267; 0.01157; 0.00023
 237.63;  312.925;  255.007; 5476.106; 0.01470; 0.00029
 238.23;  198.245;  178.109; 5557.100; 0.00443; 0.00009
 238.83;  192.546;  163.509; 5587.205; 0.00651; 0.00013
 239.43;  220.310;  173.305; 5669.235; 0.01315; 0.00026
 240.03;  237.942;  188.909; 5684.486; 0.01132; 0.00023
 240.63;  186.568;  169.912; 5805.009; 0.00303; 0.00006
 241.23;  253.924;  210.407; 5803.599; 0.01052; 0.00021
 241.83;  196.642;  170.609; 5757.283; 0.00571; 0.00012
 242.43;  216.728;  188.907; 5830.420; 0.00690; 0.00014
 243.03;  194.544;  175.209; 5665.396; 0.00383; 0.00008
 243.63;  204.732;  161.208; 5769.037; 0.00893; 0.00018
 244.23;  195.207;  154.805; 5796.819; 0.01162; 0.00024
 244.83;  166.236;  150.808; 5806.754; 0.00329; 0.00007
 245.43;  229.604;  189.204; 5823.208; 0.01024; 0.00021
 246.02;  391.922;  345.506; 5800.188; 0.01036; 0.00021
 246.62;  204.707;  176.605; 5811.522; 0.00764; 0.00016
 247.22;  173.452;  152.710; 5818.533; 0.00378; 0.00008
 247.82;  219.147;  205.209; 5941.708; 0.00249; 0.00005
 248.42;  313.328;  264.607; 5924.620; 0.00995; 0.00021
 249.02;  225.637;  199.908; 5931.763; 0.00491; 0.00010
 249.62;  194.858;  169.111; 5978.860; 0.00426; 0.00009
 250.22;  269.251;  228.510; 6035.626; 0.00703; 0.00015
 250.82;  236.831;  196.608; 6063.934; 0.00793; 0.00017
 251.42;  223.063;  197.211; 6166.982; 0.00392; 0.00008
 252.02;  158.631;  148.708; 6146.432; 0.00183; 0.00004
 252.62;  196.779;  173.413; 6316.257; 0.00309; 0.00007
 253.22;  269.424;  225.507; 6362.600; 0.00819; 0.00017
 253.82;  170.555;  144.310; 6451.444; 0.00446; 0.00009
 254.42;  185.541;  168.609; 6595.581; 0.00299; 0.00006
 255.02;  220.058;  184.211; 6709.758; 0.00483; 0.00010
 255.62;  173.553;  144.710; 6866.335; 0.00416; 0.00009
 256.22;  333.924;  273.107; 6997.500; 0.01110; 0.00024
 256.82;  194.421;  163.506; 7151.784; 0.00524; 0.00011
 257.41;  183.459;  158.811; 7263.866; 0.00320; 0.00007
 258.01;  183.836;  153.908; 7368.656; 0.00444; 0.00010
 258.61;  225.852;  207.910; 7537.434; 0.00226; 0.00005
 259.21;  176.227;  158.207; 7585.914; 0.00269; 0.00006
 259.81;  238.425;  197.507; 7627.906; 0.00618; 0.00013
 260.41;  324.327;  275.007; 7729.113; 0.00708; 0.00015
 261.01;  151.567;  136.212; 7804.604; 0.00165; 0.00004
 261.61;  193.963;  159.711; 7874.186; 0.00353; 0.00008
 262.21;  174.116;  159.106; 7809.864; 0.00212; 0.00005
 262.81;  150.022;  140.007; 7883.093; 0.00131; 0.00003
 263.41;  185.859;  151.011; 7851.264; 0.00368; 0.00008
 264.00;  415.966;  360.812; 7910.396; 0.00520; 0.00011
 264.60;  208.352;  178.010; 7832.833; 0.00310; 0.00007
 265.20;  178.545;  141.709; 7811.800; 0.00402; 0.00009
 265.80;  185.443;  170.309; 7807.390; 0.00155; 0.00003
 266.40;  195.721;  171.206; 7758.985; 0.00308; 0.00007
 267.00;  245.642;  211.909; 7744.586; 0.00353; 0.00008
 267.60;  219.355;  181.510; 7713.844; 0.00339; 0.00008
 268.20;  233.753;  192.610; 7658.534; 0.00338; 0.00008
 268.80;  167.551;  134.910; 7613.828; 0.00269; 0.00006
 269.39;  228.702;  199.004; 7639.694; 0.00345; 0.00008
 269.99;  164.134;  151.208; 7545.848; 0.00109; 0.00002
 270.59;  200.642;  168.409; 7557.185; 0.00260; 0.00006
 271.19;  173.034;  153.308; 7463.747; 0.00150; 0.00003
 271.79;  215.727;  175.907; 7430.716; 0.00291; 0.00007
 272.39;  186.528;  163.307; 7390.417; 0.00152; 0.00003
 272.99;  180.102;  150.304; 7366.798; 0.00223; 0.00005
 273.59;  181.796;  146.003; 7394.867; 0.00254; 0.00006
 274.18;  197.808;  171.305; 7372.027; 0.00159; 0.00004
 274.78;  189.592;  165.703; 7463.749; 0.00146; 0.00003
 275.38;  444.853;  361.998; 7541.064; 0.00576; 0.00013
 275.98;  184.328;  158.695; 7555.049; 0.00173; 0.00004
 276.58;  201.111;  172.593; 7679.967; 0.00191; 0.00004
 277.18;  176.436;  140.996; 7761.887; 0.00171; 0.00004
 277.78;  205.296;  168.891; 7885.197; 0.00195; 0.00005
 278.37;  170.057;  144.387; 8094.415; 0.00134; 0.00003
 278.97;  198.683;  161.590; 8236.837; 0.00144; 0.00003
 279.57;  208.533;  162.284; 8401.201; 0.00190; 0.00004
 280.17;  184.827;  139.283; 8585.075; 0.00172; 0.00004
 280.77;  196.009;  170.081; 8739.990; 0.00097; 0.00002
 281.37;  211.706;  178.680; 8921.174; 0.00116; 0.00003
 281.96;  210.940;  174.472; 9108.466; 0.00147; 0.00003
 282.56;  214.463;  173.175; 9270.274; 0.00141; 0.00003
 283.16;  223.628;  179.071; 9355.810; 0.00167; 0.00004
 283.76;  188.127;  139.371; 9505.805; 0.00161; 0.00004
 284.36;  346.698;  274.567; 9628.166; 0.00260; 0.00006
 284.95;  199.543;  159.561; 9802.511; 0.00176; 0.00004
 285.55;  216.674;  171.965; 9973.057; 0.00166; 0.00004
 286.15;  212.297;  174.867;10153.664; 0.00124; 0.00003
 286.75;  241.436;  205.160;10252.877; 0.00153; 0.00004
 287.35;  214.451;  142.062;10345.749; 0.00286; 0.00007
 287.94;  173.671;  117.664;10437.340; 0.00212; 0.00005
 288.54;  184.664;  144.863;10563.308; 0.00158; 0.00004
 289.14;  183.962;  139.663;10625.296; 0.00188; 0.00005
 289.74;  191.571;  148.364;10698.339; 0.00190; 0.00005
 290.34;  190.225;  159.671;10794.693; 0.00107; 0.00003
 290.93;  172.406;  143.468;10889.406; 0.00117; 0.00003
 291.53;  186.421;  151.470;10882.075; 0.00137; 0.00003
 292.13;  167.710;  135.669;10986.727; 0.00134; 0.00003
 292.73;  216.884;  170.066;10956.902; 0.00232; 0.00006
 293.33;  173.029;  120.771;10919.612; 0.00223; 0.00005
 293.92;  176.442;  140.573;10969.773; 0.00152; 0.00004
 294.52;  159.654;  127.074;10992.032; 0.00133; 0.00003
 295.12;  197.642;  145.273;10934.672; 0.00236; 0.00006
 295.72;  181.738;  125.172;10815.554; 0.00269; 0.00007
 296.31;  240.873;  188.876;10904.618; 0.00220; 0.00005
 296.91;  245.224;  192.771;10752.392; 0.00281; 0.00007
 297.51;  212.961;  161.875;10565.563; 0.00231; 0.00006
 298.11;  415.463;  338.175;10514.872; 0.00327; 0.00008
 298.70;  180.436;  142.872;10425.745; 0.00170; 0.00004
 299.30;  145.949;  120.561;10340.539; 0.00149; 0.00004
 299.90;  209.219;  166.258;10399.297; 0.00237; 0.00006
 300.50;  238.770;  191.364;10320.936; 0.00239; 0.00006
 301.09;  182.366;  125.663;10404.916; 0.00349; 0.00009
 301.69;  183.401;  145.168;10530.383; 0.00200; 0.00005
 302.29;  177.070;  130.664;10625.238; 0.00297; 0.00008
 302.89;  178.483;  132.366;10712.996; 0.00293; 0.00007
 303.48;  230.057;  196.462;10883.577; 0.00265; 0.00007
 304.08;  165.025;  143.871;11034.496; 0.00162; 0.00004
 304.68;  192.190;  148.966;11199.933; 0.00408; 0.00010
 305.28;  196.892;  157.467;11331.138; 0.00396; 0.00010
 305.87;  166.330;  121.071;11557.216; 0.00398; 0.00010
 306.47;  168.806;  118.968;11629.007; 0.00485; 0.00012
 307.07;  204.736;  157.372;11817.946; 0.00417; 0.00011
 307.67;  201.365;  156.475;12043.183; 0.00367; 0.00009
 308.26;  180.640;  143.772;12135.263; 0.00330; 0.00008
 308.86;  214.277;  167.665;12308.970; 0.00503; 0.00013
 309.46;  182.038;  137.072;12516.957; 0.00399; 0.00010
 310.05;  167.999;  141.167;12737.271; 0.00279; 0.00007
 310.65;  207.082;  158.578;12857.363; 0.00404; 0.00010
 311.25;  209.426;  160.371;12935.298; 0.00463; 0.00012
 311.85;  207.204;  156.568;13145.596; 0.00523; 0.00014
 312.44;  185.507;  149.168;13347.612; 0.00361; 0.00009
 313.04;  182.528;  136.371;13485.708; 0.00435; 0.00011
 313.64;  193.801;  149.968;13620.981; 0.00470; 0.00012
 314.23;  209.821;  160.970;13715.076; 0.00474; 0.00012
 314.83;  456.310;  384.969;13936.025; 0.00747; 0.00020
 315.43;  185.082;  127.165;13967.090; 0.00647; 0.00017
 316.02;  227.354;  176.974;14040.930; 0.00454; 0.00012
 316.62;  201.518;  147.370;14125.363; 0.00536; 0.00014
 317.22;  209.533;  160.472;14245.032; 0.00462; 0.00012
 317.81;  176.339;  137.272;14233.762; 0.00373; 0.00010
 318.41;  199.047;  144.273;14263.897; 0.00511; 0.00014
 319.01;  185.905;  140.268;14427.401; 0.00465; 0.00012
 319.60;  217.015;  175.869;14388.747; 0.00399; 0.00011
 320.20;  172.824;  124.570;14258.389; 0.00477; 0.00013
 320.80;  195.413;  149.269;14334.539; 0.00475; 0.00013
 321.39;  193.016;  149.269;14417.251; 0.00447; 0.00012
 321.99;  194.609;  145.369;14396.221; 0.00517; 0.00014
 322.59;  251.340;  198.472;14327.565; 0.00510; 0.00014
 323.18;  185.233;  138.872;14288.034; 0.00465; 0.00013
 323.78;  193.152;  156.574;14312.623; 0.00339; 0.00009
 324.38;  173.418;  136.770;14236.162; 0.00373; 0.00010
 324.97;  163.846;  131.673;14253.394; 0.00307; 0.00008
 325.57;  209.717;  153.870;14167.559; 0.00572; 0.00016
 326.17;  219.758;  164.075;14160.352; 0.00516; 0.00014
 326.76;  200.027;  151.871;14123.806; 0.00483; 0.00013
 327.36;  221.339;  170.672;14073.860; 0.00470; 0.00013
 327.95;  172.052;  126.274;13930.123; 0.00398; 0.00011
 328.55;  176.751;  132.874;13852.519; 0.00378; 0.00010
 329.15;  386.706;  326.868;13731.407; 0.00561; 0.00015
 329.74;  167.684;  131.678;13598.370; 0.00285; 0.00008
 330.34;  185.666;  151.176;13577.890; 0.00264; 0.00007
 330.94;  201.794;  163.167;13380.550; 0.00342; 0.00009
 331.53;  177.107;  144.968;13220.110; 0.00272; 0.00008
 332.13;  158.653;  114.274;13089.027; 0.00371; 0.00010
 332.72;  311.552;  237.274;12940.220; 0.00650; 0.00018
 333.32;  175.872;  140.176;12869.816; 0.00314; 0.00009
 333.92;  153.586;  123.678;12706.579; 0.00248; 0.00007
 334.51;  158.878;  121.477;12609.342; 0.00325; 0.00009
 335.11;  191.669;  147.876;12467.899; 0.00387; 0.00011
 335.70;  161.798;  132.879;12368.236; 0.00232; 0.00007
 336.30;  210.749;  174.086;12332.478; 0.00265; 0.00007
 336.90;  215.406;  153.880;12252.377; 0.00470; 0.00013
 337.49;  171.402;  121.780;12294.456; 0.00367; 0.00010
 338.09;  191.504;  150.080;12364.864; 0.00300; 0.00008
 338.68;  211.552;  159.586;12237.490; 0.00336; 0.00010
 339.28;  187.045;  133.585;12302.356; 0.00348; 0.00010
 339.88;  200.963;  153.887;12390.342; 0.00300; 0.00009
 340.47;  229.352;  177.686;12416.990; 0.00334; 0.00009
 341.07;  212.450;  169.486;12531.981; 0.00273; 0.00008
 341.66;  168.666;  109.888;12623.655; 0.00358; 0.00010
 342.26;  207.944;  132.885;12797.052; 0.00467; 0.00013
 342.85;  208.356;  148.086;12937.109; 0.00347; 0.00010
 343.45;  178.699;  127.392;12984.911; 0.00274; 0.00008
 344.05;  222.818;  157.382;13082.432; 0.00355; 0.00010
 344.64;  236.114;  156.969;13194.041; 0.00402; 0.00012
 345.24;  210.416;  119.945;13265.813; 0.00448; 0.00013
 345.83;  263.790;  163.730;13312.418; 0.00499; 0.00014
 346.43;  217.086;  115.042;13468.470; 0.00431; 0.00012
 347.02;  294.708;  183.844;13572.576; 0.00456; 0.00013
 347.62;  226.349;   84.249;13379.367; 0.00563; 0.00016
 348.21;  292.618;  151.546;13533.522; 0.00563; 0.00016
 348.81;  374.623;  181.646;13381.845; 0.00744; 0.00022
 349.41;  358.460;  148.051;13369.417; 0.00798; 0.00023
 350.00;  384.345;  126.049;13470.448; 0.01015; 0.00030
 350.60;  378.636;  126.948;13588.306; 0.00990; 0.00029
 351.19;  455.430;  152.847;13759.078; 0.01159; 0.00034
 351.79;  499.151;  173.150;13840.276; 0.01150; 0.00034
 352.38;  507.059;  111.051;13938.916; 0.01333; 0.00039
 352.98;  593.779;  141.641;13979.839; 0.01563; 0.00046
 353.57;  656.125;  135.134;14008.884; 0.01735; 0.00051
 354.17;  668.739;  100.336;14067.448; 0.01782; 0.00053
 354.76;  818.382;  155.229;14095.882; 0.02024; 0.00060
 355.36;  854.014;  135.021;14156.360; 0.02159; 0.00064
 355.95;  873.223;   93.010;14214.335; 0.02278; 0.00068
 356.55;  949.446;  103.101;14229.371; 0.02413; 0.00072
 357.14; 1021.459;  121.490;14325.365; 0.02453; 0.00073
 357.74; 1081.592;  132.882;14177.550; 0.02536; 0.00076
 358.33; 1104.679;  137.768;14059.315; 0.02556; 0.00077
 358.93; 1120.444;  136.352;13923.782; 0.02625; 0.00079
 359.52; 1114.172;  114.643;13798.344; 0.02555; 0.00077
 360.12; 1174.971;  116.631;13719.972; 0.02699; 0.00081
 360.71; 1154.268;  136.431;13707.554; 0.02532; 0.00076
 361.31; 1191.328;  157.026;13621.268; 0.02527; 0.00076
 361.90; 1357.279;  322.920;13507.738; 0.02555; 0.00077
 362.50; 1133.828;  143.914;13484.098; 0.02506; 0.00076
 363.09; 1118.846;  124.816;13341.582; 0.02538; 0.00077
 363.69; 1097.218;  123.025;13261.120; 0.02543; 0.00077
 364.28; 1106.314;  131.937;13269.773; 0.02589; 0.00079
 364.88; 1168.955;  189.041;13351.165; 0.02722; 0.00083
 365.47; 1139.044;  148.852;13342.885; 0.02685; 0.00082
 366.06; 1087.722;  123.162;13257.149; 0.02659; 0.00081
 366.66; 1096.458;  131.966;13117.317; 0.02712; 0.00083
 367.25; 1092.375;  149.468;13006.099; 0.02651; 0.00081
 367.85; 1085.521;  118.174;12998.112; 0.02639; 0.00081
 368.44; 1146.156;  195.066;12809.111; 0.02608; 0.00080
 369.04; 1067.791;  138.258;12658.104; 0.02569; 0.00079
 369.63; 1087.154;  155.053;12538.629; 0.02549; 0.00079
 370.23; 1034.509;  130.248;12507.819; 0.02501; 0.00077
 370.82; 1014.945;  127.040;12275.616; 0.02549; 0.00079
 371.41;  972.080;  118.644;12167.683; 0.02459; 0.00076
 372.01;  951.265;  140.643;12115.712; 0.02384; 0.00074
 372.60;  898.896;  117.146;11975.456; 0.02362; 0.00074
 373.20;  927.261;  174.654;12039.964; 0.02224; 0.00069
 373.79;  850.320;  147.261;11941.740; 0.02027; 0.00063
 374.39;  786.194;  135.358;11902.018; 0.01901; 0.00059
 374.98;  733.491;  140.058;11792.806; 0.01738; 0.00054
 375.57;  719.970;  132.655;11721.304; 0.01760; 0.00055
 376.17;  689.839;  148.552;11796.660; 0.01634; 0.00051
 376.76;  647.770;  126.855;11721.704; 0.01578; 0.00050
 377.36;  576.576;  108.556;11727.335; 0.01421; 0.00045
 377.95;  553.793;  123.558;11721.412; 0.01288; 0.00041
 378.55;  521.693;  127.358;11711.712; 0.01190; 0.00038
 379.14;  486.739;  124.964;11709.428; 0.01080; 0.00034
 379.73;  447.338;  107.651;11636.354; 0.01053; 0.00033
 380.33;  444.472;  127.356;11703.912; 0.00964; 0.00031
 380.92;  435.157;  140.554;11668.144; 0.00906; 0.00029
 381.51;  414.205;  150.860;11686.070; 0.00798; 0.00025
 382.11;  352.800;  107.159;11643.046; 0.00747; 0.00024
 382.70;  381.461;  150.654;11603.363; 0.00714; 0.00023
 383.30;  344.379;  131.356;11590.348; 0.00652; 0.00021
 383.89;  360.753;  148.153;11709.427; 0.00650; 0.00021
 384.48;  307.047;  116.153;11665.995; 0.00584; 0.00019
 385.08;  315.059;  135.354;11854.352; 0.00547; 0.00018
 385.67;  290.775;  111.656;11824.527; 0.00534; 0.00017
 386.27;  289.377;  119.756;11982.236; 0.00505; 0.00016
 386.86;  287.747;  118.553;12038.498; 0.00507; 0.00016
 387.45;  277.870;  105.955;12123.205; 0.00507; 0.00016
 388.05;  298.887;  157.557;12277.087; 0.00409; 0.00013
 388.64;  293.000;  161.559;12483.044; 0.00379; 0.00012
 389.23;  267.186;  148.357;12506.880; 0.00340; 0.00011
 389.83;  222.559;  119.954;12733.854; 0.00293; 0.00010
 390.42;  275.467;  151.455;13005.489; 0.00347; 0.00011
 391.01;  231.421;  118.762;13122.046; 0.00309; 0.00010
 391.61;  213.962;  112.254;13136.770; 0.00281; 0.00009
 392.20;  235.558;  129.354;13389.848; 0.00290; 0.00010
 392.79;  222.072;  110.456;13482.314; 0.00301; 0.00010
 393.39;  269.656;  176.754;13714.141; 0.00248; 0.00008
 393.98;  194.184;   96.957;13887.473; 0.00256; 0.00008
 394.57;  242.421;  144.349;14119.877; 0.00259; 0.00009
 395.17;  257.794;  181.358;14342.017; 0.00196; 0.00006
 395.76;  251.541;  157.252;14398.170; 0.00244; 0.00008
 396.35;  214.483;  121.657;14723.368; 0.00234; 0.00008
 396.95;  232.277;  153.556;14851.736; 0.00197; 0.00007
 397.54;  233.082;  129.257;15011.260; 0.00256; 0.00009
 398.13;  310.596;  210.558;15237.327; 0.00245; 0.00008
 398.73;  224.291;  137.058;15364.602; 0.00210; 0.00007
 399.32;  212.342;  116.952;15491.473; 0.00229; 0.00008
 399.91;  196.380;  120.357;15600.753; 0.00180; 0.00006
 400.50;  199.565;  142.255;15697.381; 0.00135; 0.00005
 401.10;  238.802;  151.159;15828.054; 0.00204; 0.00007
 401.69;  196.082;  127.157;15854.460; 0.00160; 0.00005
 402.28;  201.785;  132.357;15897.175; 0.00159; 0.00005
 402.88;  210.185;  140.157;15970.475; 0.00160; 0.00005
 403.47;  213.987;  117.857;16008.786; 0.00219; 0.00007
 404.06;  239.079;  152.956;16056.750; 0.00195; 0.00007
 404.66;  201.884;  146.857;16006.671; 0.00125; 0.00004
 405.25;  213.948;  155.853;16161.003; 0.00131; 0.00004
 405.84;  199.011;  134.860;16197.799; 0.00143; 0.00005
 406.43;  179.991;  110.258;16343.805; 0.00156; 0.00005
 407.03;  243.500;  159.759;16413.145; 0.00185; 0.00006
 407.62;  189.625;  114.250;16282.092; 0.00169; 0.00006
 408.21;  298.989;  202.758;16281.894; 0.00215; 0.00007
 408.80;  176.065;  111.055;16313.383; 0.00144; 0.00005
 409.40;  181.303;  111.459;16243.061; 0.00154; 0.00005
 409.99;  228.785;  148.957;16360.174; 0.00177; 0.00006
 410.58;  173.825;   97.362;16266.062; 0.00169; 0.00006
 411.17;  201.616;  109.861;16281.023; 0.00203; 0.00007
 411.77;  216.077;  151.656;16300.337; 0.00143; 0.00005
 412.36;  193.395;  108.458;16211.225; 0.00190; 0.00007
 412.95;  195.524;  117.362;16312.261; 0.00173; 0.00006
 413.54;  214.035;  127.563;16200.710; 0.00192; 0.00007
 414.14;  222.729;  135.163;16218.084; 0.00195; 0.00007
 414.73;  184.205;   94.360;15995.170; 0.00202; 0.00007
 415.32;  201.726;  111.262;16069.668; 0.00203; 0.00007
 415.91;  186.160;  109.366;15987.828; 0.00173; 0.00006
 416.50;  193.645;   95.064;15943.356; 0.00223; 0.00008
 417.10;  173.822;  111.162;15912.947; 0.00143; 0.00005
 417.69;  279.037;  183.263;15903.020; 0.00220; 0.00008
 418.28;  230.937;  141.563;15902.022; 0.00206; 0.00007
 418.87;  226.457;  148.466;15922.014; 0.00180; 0.00006
 419.47;  232.241;  126.764;15950.140; 0.00245; 0.00009
 420.06;  258.292;  168.670;15879.978; 0.00208; 0.00007
 420.65;  244.643;  155.164;15894.348; 0.00211; 0.00007
 421.24;  217.386;  120.869;15789.352; 0.00228; 0.00008
 421.83;  179.579;  107.869;15610.418; 0.00171; 0.00006
 422.43;  189.974;  123.968;15405.994; 0.00159; 0.00006
 423.02;  229.547;  152.165;15476.169; 0.00187; 0.00007
 423.61;  259.927;  162.074;15425.441; 0.00237; 0.00008
 424.20;  201.507;  134.772;15117.051; 0.00164; 0.00006
 424.79;  233.331;  145.875;15050.664; 0.00215; 0.00008
 425.38;  199.798;  120.671;14884.408; 0.00197; 0.00007
 425.98;  190.094;  106.470;14787.487; 0.00210; 0.00007
 426.57;  276.337;  185.876;14780.592; 0.00228; 0.00008
 427.16;  292.549;  196.677;14687.646; 0.00243; 0.00009
 427.75;  206.523;  113.374;14634.427; 0.00240; 0.00009
 428.34;  191.742;  105.476;14516.915; 0.00224; 0.00008
 428.93;  229.689;  143.182;14525.937; 0.00224; 0.00008
 429.53;  235.924;  147.486;14399.900; 0.00231; 0.00008
 430.12;  200.185;  111.081;14222.417; 0.00236; 0.00008
 430.71;  182.569;  102.079;14024.941; 0.00216; 0.00008
 431.30;  274.936;  177.075;14018.987; 0.00263; 0.00009
 431.89;  228.480;  139.481;13882.793; 0.00240; 0.00009
 432.48;  255.520;  167.685;13707.379; 0.00239; 0.00009
 433.08;  205.588;  125.282;13447.029; 0.00222; 0.00008
 433.67;  202.710;  134.684;13403.231; 0.00188; 0.00007
 434.26;  225.223;  132.886;13265.896; 0.00256; 0.00009
 434.85;  241.636;  150.987;13088.457; 0.00253; 0.00009
 435.44;  231.060;  135.390;12961.570; 0.00269; 0.00010
 436.03;  236.575;  156.292;12988.141; 0.00226; 0.00008
 436.62;  358.824;  249.186;12866.499; 0.00310; 0.00011
 437.21;  222.072;  142.792;12843.026; 0.00225; 0.00008
 437.81;  262.082;  161.293;12774.470; 0.00287; 0.00010
 438.40;  251.257;  162.390;12805.753; 0.00252; 0.00009
 438.99;  248.801;  144.495;12760.762; 0.00298; 0.00011
 439.58;  208.585;  124.993;12757.487; 0.00239; 0.00009
 440.17;  201.302;  132.595;12745.864; 0.00197; 0.00007
 440.76;  237.585;  158.293;12749.184; 0.00228; 0.00008
 441.35;  189.014;  113.797;12701.024; 0.00215; 0.00008
 441.94;  226.082;  149.493;12804.873; 0.00220; 0.00008
 442.53;  189.088;   95.694;12713.802; 0.00268; 0.00010
 443.12;  238.214;  145.797;12880.022; 0.00263; 0.00010
 443.72;  171.528;  105.499;12883.889; 0.00188; 0.00007
 444.31;  190.359;  119.602;12914.632; 0.00201; 0.00007
 444.90;  265.718;  177.597;13017.940; 0.00251; 0.00009
 445.49;  183.131;  114.599;12977.005; 0.00194; 0.00007
 446.08;  218.022;  132.398;13065.358; 0.00242; 0.00009
 446.67;  226.610;  141.996;13047.204; 0.00241; 0.00009
 447.26;  169.420;  108.810;13128.922; 0.00170; 0.00006
 447.85;  172.667;  103.903;13136.170; 0.00193; 0.00007
 448.44;  176.202;   96.507;13156.836; 0.00222; 0.00008
 449.03;  186.946;  105.201;13212.075; 0.00228; 0.00009
 449.62;  192.817;   98.197;13212.835; 0.00263; 0.00010
 450.21;  224.104;  142.608;13232.144; 0.00224; 0.00008
 450.80;  214.367;  132.803;13210.071; 0.00223; 0.00008
 451.39;  169.271;  102.204;13280.288; 0.00182; 0.00007
 451.98;  190.621;  116.710;13361.025; 0.00199; 0.00008
 452.57;  191.409;  123.308;13352.967; 0.00183; 0.00007
 453.17;  184.079;  103.805;13390.926; 0.00214; 0.00008
 453.76;  189.339;   98.212;13449.411; 0.00240; 0.00009
 454.35;  201.515;  119.209;13449.195; 0.00215; 0.00008
 454.94;  181.526;  113.110;13547.948; 0.00178; 0.00007
 455.53;  182.420;   98.810;13647.621; 0.00216; 0.00008
 456.12;  179.945;  110.013;13639.739; 0.00180; 0.00007
 456.71;  219.173;  143.616;13729.472; 0.00193; 0.00007
 457.30;  193.773;  109.316;13869.368; 0.00213; 0.00008
 457.89;  176.862;  122.815;13859.720; 0.00136; 0.00005
 458.48;  150.755;   86.714;13992.283; 0.00160; 0.00006
 459.07;  202.488;  133.618;14014.042; 0.00171; 0.00007
 459.66;  168.870;   94.616;14017.355; 0.00185; 0.00007
 460.25;  154.774;   91.816;14043.774; 0.00155; 0.00006
 460.84;  198.577;  115.516;14122.487; 0.00205; 0.00008
 461.43;  149.681;   92.917;14239.908; 0.00139; 0.00005
 462.02;  212.374;  135.216;14250.976; 0.00189; 0.00007
 462.61;  165.190;   90.918;14354.648; 0.00181; 0.00007
 463.20;  175.107;  108.920;14434.730; 0.00160; 0.00006
 463.79;  210.594;  127.419;14540.469; 0.00200; 0.00008
 464.38;  151.787;   82.818;14582.535; 0.00166; 0.00006
 464.97;  174.695;   96.319;14564.374; 0.00186; 0.00007
 465.56;  161.602;   86.920;14552.106; 0.00178; 0.00007
 466.15;  168.475;   89.628;14775.149; 0.00185; 0.00007
 466.74;  204.171;  115.128;14771.829; 0.00209; 0.00008
 467.32;  138.327;   63.923;14624.322; 0.00175; 0.00007
 467.91;  190.637;  112.124;14685.370; 0.00183; 0.00007
 468.50;  155.338;   76.624;14662.474; 0.00183; 0.00007
 469.09;  171.262;  101.027;14603.087; 0.00162; 0.00006
 469.68;  238.026;  168.922;14576.221; 0.00160; 0.00006
 470.27;  191.177;  125.529;14710.860; 0.00150; 0.00006
 470.86;  165.205;   94.832;14779.790; 0.00160; 0.00006
 471.45;  158.480;   98.329;14796.673; 0.00137; 0.00005
 472.04;  138.179;   75.729;14893.567; 0.00142; 0.00006
 472.63;  287.895;  199.831;14949.444; 0.00200; 0.00008
 473.22;  172.333;  104.735;15081.421; 0.00153; 0.00006
 473.81;  156.030;   83.335;15204.309; 0.00164; 0.00006
 474.40;  193.516;  139.133;15323.040; 0.00123; 0.00005
 474.99;  186.725;  108.034;15371.985; 0.00176; 0.00007
 475.58;  211.106;  144.432;15472.797; 0.00149; 0.00006
 476.17;  138.960;   77.639;15381.247; 0.00137; 0.00005
 476.76;  142.548;   72.837;15500.493; 0.00156; 0.00006
 477.34;  170.954;  108.738;15690.220; 0.00139; 0.00006
 477.93;  158.133;   82.435;15655.120; 0.00169; 0.00007
 478.52;  165.757;   77.138;15804.937; 0.00196; 0.00008
 479.11;  125.351;   67.038;15723.306; 0.00130; 0.00005
 479.70;  232.950;  150.437;15824.401; 0.00183; 0.00007
 480.29;  113.644;   35.837;15854.772; 0.00174; 0.00007
 480.88;  150.722;   83.734;15970.172; 0.00149; 0.00006
 481.47;  176.152;   93.738;16240.510; 0.00183; 0.00007
 482.06;  142.049;   82.137;16277.097; 0.00133; 0.00005
 482.64;  146.122;   76.234;16369.672; 0.00156; 0.00006
 483.23;  137.521;   66.934;16600.365; 0.00157; 0.00006
 483.82;  132.039;   65.236;16701.951; 0.00149; 0.00006
 484.41;  137.568;   83.640;16720.385; 0.00120; 0.00005
 485.00;  116.575;   68.640;16684.320; 0.00107; 0.00004
 485.59;  140.043;   84.837;16757.570; 0.00124; 0.00005
 486.18;  137.748;   67.837;16565.195; 0.00158; 0.00006
 486.77;  152.762;   99.239;16641.256; 0.00121; 0.00005
 487.35;  155.985;   97.942;16516.766; 0.00131; 0.00005
 487.94;  170.806;  103.544;16342.365; 0.00153; 0.00006
 488.53;  210.444;  120.337;16328.276; 0.00205; 0.00008
 489.12;  141.353;   78.338;16137.914; 0.00144; 0.00006
 489.71;  136.594;   73.043;16040.510; 0.00145; 0.00006
 490.30;  133.349;   75.137;15823.296; 0.00135; 0.00006
 490.89;  129.194;   77.243;15770.310; 0.00121; 0.00005
 491.47;  229.772;  141.540;15636.203; 0.00206; 0.00008
 492.06;  186.001;  121.544;15767.440; 0.00150; 0.00006
 492.65;  110.753;   73.638;15651.517; 0.00087; 0.00004
 493.24;  137.875;   85.340;15745.321; 0.00123; 0.00005
 493.83;  139.790;   73.942;15737.289; 0.00156; 0.00006
 494.42;  121.151;   53.138;15680.605; 0.00162; 0.00007
 495.00;  167.037;   93.948;15772.610; 0.00174; 0.00007
 495.59;  162.011;  101.745;15555.489; 0.00145; 0.00006
 496.18;  148.378;   75.841;15587.835; 0.00176; 0.00007
 496.77;  130.620;   55.746;15499.329; 0.00182; 0.00008
 497.36;  187.195;  108.643;15408.615; 0.00193; 0.00008
 497.94;  181.787;  116.542;15405.174; 0.00161; 0.00007
 498.53;  140.844;   70.649;15336.545; 0.00173; 0.00007
 499.12;  129.063;   49.051;15247.135; 0.00200; 0.00008
 499.71;  161.987;   84.842;15223.276; 0.00194; 0.00008
 500.30;  155.107;   74.944;15162.171; 0.00202; 0.00008
 500.88;  175.268;   97.752;15165.755; 0.00197; 0.00008
 501.47;  134.949;   77.949;15064.069; 0.00146; 0.00006
 502.06;  167.454;   85.650;15084.289; 0.00211; 0.00009
 502.65;  145.244;   71.749;15053.546; 0.00191; 0.00008
 503.23;  144.721;   67.646;14986.635; 0.00200; 0.00008
 503.82;  148.849;   67.349;15037.966; 0.00213; 0.00009
 504.41;  149.078;   53.153;14906.905; 0.00252; 0.00011
 505.00;  247.255;  155.250;14855.493; 0.00243; 0.00010
 505.58;  198.239;   96.648;14830.521; 0.00270; 0.00011
 506.17;  220.575;  114.252;14742.188; 0.00284; 0.00012
 506.76;  191.832;   81.647;14670.589; 0.00294; 0.00012
 507.35;  211.473;   99.352;14583.180; 0.00302; 0.00013
 507.93;  186.196;   76.655;14526.590; 0.00297; 0.00013
 508.52;  177.688;   63.054;14549.052; 0.00312; 0.00013
 509.11;  204.455;   70.950;14402.097; 0.00365; 0.00016
 509.70;  193.082;   60.253;14285.923; 0.00365; 0.00016
 510.28;  223.681;   96.753;14326.917; 0.00351; 0.00015
 510.87;  225.900;   68.556;14263.308; 0.00437; 0.00019
 511.46;  234.097;   63.355;14128.893; 0.00478; 0.00020
 512.05;  241.462;   53.451;14064.229; 0.00530; 0.00023
 512.63;  268.536;   85.560;14044.876; 0.00516; 0.00022
 513.22;  262.002;   60.356;13960.816; 0.00576; 0.00025
 513.81;  288.165;   74.763;13930.912; 0.00611; 0.00026
 514.40;  297.442;   56.561;13850.705; 0.00696; 0.00030
 514.98;  338.045;   91.761;13811.717; 0.00714; 0.00031
 515.57;  364.901;   98.256;13759.513; 0.00777; 0.00033
 516.16;  500.519;  194.558;13665.995; 0.00902; 0.00039
 516.74;  351.119;   61.158;13650.798; 0.00858; 0.00037
 517.33;  437.895;   93.655;13631.582; 0.01024; 0.00044
 517.92;  447.826;   77.059;13572.029; 0.01106; 0.00048
 518.50;  443.959;   50.163;13526.084; 0.01185; 0.00051
 519.09;  491.221;   76.358;13522.206; 0.01246; 0.00054
 519.68;  515.533;   63.860;13582.164; 0.01364; 0.00059
 520.26;  552.936;   61.960;13514.477; 0.01487; 0.00065
 520.85;  600.131;   67.859;13509.653; 0.01619; 0.00070
 521.44;  649.322;   83.258;13416.109; 0.01736; 0.00076
 522.02;  677.111;   48.057;13449.657; 0.01932; 0.00084
 522.61;  730.866;   54.064;13481.719; 0.02079; 0.00091
 523.20;  831.931;  102.759;13529.651; 0.02244; 0.00098
 523.78;  803.736;   36.860;13421.774; 0.02368; 0.00104
 524.37;  913.339;   81.160;13489.089; 0.02578; 0.00113
 524.96;  970.758;   53.963;13546.479; 0.02845; 0.00125
 525.54; 1088.755;   79.662;13559.268; 0.03136; 0.00138
 526.13; 1181.249;   86.061;13613.739; 0.03409; 0.00150
 526.72; 1215.738;   36.160;13636.987; 0.03681; 0.00162
 527.30; 1354.090;   79.866;13736.029; 0.03975; 0.00175
 527.89; 1473.179;   87.665;13772.479; 0.04330; 0.00191
 528.48; 1601.559;   67.963;13717.585; 0.04803; 0.00212
 529.06; 1750.077;   96.665;13839.567; 0.05177; 0.00229
 529.65; 1889.896;   87.867;13879.060; 0.05644; 0.00250
 530.23; 2066.826;   90.871;13985.299; 0.06194; 0.00275
 530.82; 2258.261;   92.763;14006.492; 0.06807; 0.00302
 531.41; 2427.172;   82.864;13952.847; 0.07405; 0.00329
 531.99; 2703.880;  128.365;14189.484; 0.08104; 0.00360
 532.58; 2836.702;   53.068;14202.188; 0.08791; 0.00391
 533.17; 3527.006;  372.868;14394.606; 0.09900; 0.00441
 533.75; 3422.282;   82.365;14400.594; 0.10486; 0.00468
 534.34; 3687.585;   46.266;14487.405; 0.11451; 0.00511
 534.92; 4093.588;  109.366;14675.321; 0.12477; 0.00558
 535.51; 4402.692;   65.267;14802.540; 0.13541; 0.00606
 536.10; 4753.580;   73.565;14892.283; 0.14661; 0.00657
 536.68; 5183.571;   46.464;14930.339; 0.16029; 0.00719
 537.27; 5658.512;   71.169;15110.231; 0.17423; 0.00782
 537.85; 6203.186;   79.266;15302.512; 0.18933; 0.00851
 538.44; 6750.421;   64.070;15447.575; 0.20580; 0.00926
 539.02; 7247.091;   44.966;15526.634; 0.22197; 0.01000
 539.61; 7984.398;   51.267;15661.866; 0.24259; 0.01094
 540.20; 8642.719;   99.270;15878.364; 0.26024; 0.01175
 540.78; 9406.905;   90.468;16158.702; 0.28153; 0.01272
 541.37;10166.243;   64.073;16286.580; 0.30357; 0.01374
 541.95;10957.031;  101.471;16484.824; 0.32484; 0.01471
 542.54;11869.738;   80.672;16728.355; 0.34919; 0.01583
 543.12;12906.604;  103.568;16867.094; 0.37647; 0.01709
 543.71;13854.213;   90.769;17189.740; 0.40114; 0.01823
 544.29;14801.500;   73.468;17314.779; 0.42607; 0.01938
 544.88;16022.496;   92.767;17689.258; 0.45581; 0.02076
 545.47;17042.392;   40.767;17727.537; 0.48526; 0.02212
 546.05;18227.031;   89.871;17966.822; 0.51347; 0.02343
 546.64;19597.807;  236.468;18134.611; 0.54621; 0.02495
 547.22;20646.743;   67.473;18293.980; 0.57578; 0.02633
 547.81;21907.650;  109.374;18506.514; 0.60433; 0.02767
 548.39;23086.831;   68.371;18651.521; 0.63764; 0.02923
 548.98;24189.424;   82.770;18741.889; 0.66813; 0.03066
 549.56;25406.432;   80.571;18939.928; 0.69600; 0.03197
 550.15;26535.024;   49.370;19057.387; 0.72776; 0.03346
 550.73;27710.272;   61.976;19266.816; 0.75781; 0.03488
 551.32;28758.264;   69.075;19436.779; 0.78342; 0.03610
 551.90;29886.825;   60.871;19450.693; 0.81518; 0.03760
 552.49;31107.061;   87.875;19831.463; 0.84273; 0.03891
 553.07;32037.935;  100.672;19986.041; 0.86804; 0.04012
 553.66;33164.841;   84.973;20108.471; 0.89514; 0.04142
 554.24;33832.073;  179.276;20174.721; 0.91578; 0.04242
 554.83;34660.750;   81.874;20293.715; 0.93574; 0.04339
 555.41;35334.054;   74.874;20431.230; 0.95309; 0.04424
 556.00;36235.853;   89.774;20531.824; 0.97339; 0.04523
 556.58;36855.288;   77.378;20630.889; 0.99189; 0.04614
 557.17;37421.280;   79.077;20893.254; 1.00379; 0.04674
 557.75;37794.006;   62.280;21027.377; 1.01446; 0.04729
 558.33;38480.872;   57.876;21327.117; 1.02410; 0.04779
 558.92;38837.203;   69.480;21511.662; 1.03108; 0.04817
 559.50;39143.777;   57.177;21679.539; 1.03605; 0.04845
 560.09;39529.181;   52.377;21966.859; 1.04259; 0.04881
 560.67;39706.882;   92.177;22094.262; 1.04571; 0.04900
 561.26;39998.274;  273.977;22325.426; 1.04415; 0.04898
 561.84;39747.187;   96.578;22537.285; 1.04154; 0.04891
 562.43;39842.312;   69.881;22665.506; 1.03977; 0.04888
 563.01;39722.670;   68.476;22804.908; 1.03983; 0.04893
 563.60;39484.878;   63.477;22987.145; 1.03104; 0.04857
 564.18;39110.674;   18.377;22954.326; 1.02855; 0.04850
 564.76;38897.287;   96.978;23225.584; 1.01989; 0.04814
 565.35;38649.497;   19.179;23472.633; 1.01079; 0.04776
 565.93;38564.397;   84.879;23797.533; 1.00623; 0.04759
 566.52;38343.685;   57.978;24374.377; 0.99596; 0.04716
 567.10;37980.110;   42.481;24673.195; 0.99064; 0.04695
 567.68;37709.071;   45.276;25084.010; 0.98045; 0.04652
 568.27;37178.492;   22.979;25516.410; 0.96882; 0.04601
 568.85;37048.099;  107.380;26141.744; 0.95799; 0.04555
 569.44;36546.010;   44.781;26641.191; 0.94862; 0.04515
 570.02;36147.890;    5.678;27187.600; 0.93578; 0.04458
 570.60;35771.807;   76.581;27742.281; 0.92144; 0.04394
 571.19;35429.092;   64.579;28157.010; 0.90966; 0.04343
 571.77;34835.179;   90.277;28428.947; 0.89553; 0.04280
 572.36;34413.275;   14.977;28979.928; 0.88348; 0.04226
 572.94;33857.600;   57.780;29391.047; 0.86661; 0.04150
 573.52;33409.006;   21.580;29856.078; 0.85471; 0.04097
 574.11;32909.411;   31.081;30210.297; 0.83848; 0.04023
 574.69;32506.683;   39.278;30610.469; 0.82833; 0.03979
 575.27;32264.090;   33.378;31068.201; 0.81788; 0.03932
 575.86;31607.701;   44.780;31324.652; 0.80222; 0.03861
 576.44;31242.007;   41.781;31821.682; 0.79031; 0.03808
 577.03;30809.664;   38.175;32242.576; 0.77889; 0.03756
 577.61;30267.870;   28.576;32332.604; 0.76701; 0.03703
 578.19;29866.498;   27.179;32663.738; 0.75527; 0.03650
 578.78;29372.396;   28.379;33150.430; 0.74209; 0.03590
 579.36;28980.321;   21.282;33498.246; 0.73019; 0.03536
 579.94;28636.066;   54.176;33838.488; 0.71897; 0.03485
 580.53;28193.812;   50.281;33925.402; 0.70674; 0.03429
 581.11;27815.698;   60.479;33902.137; 0.69410; 0.03371
 581.69;27461.492;   82.579;33934.109; 0.68324; 0.03322
 582.28;26951.794;   40.579;34024.719; 0.67219; 0.03271
 582.86;26528.106;   29.580;34404.578; 0.66070; 0.03219
 583.44;26173.001;   65.680;34290.453; 0.65289; 0.03184
 584.02;25983.185;   43.078;34502.574; 0.64533; 0.03150
 584.61;25535.779;   67.677;34367.449; 0.63359; 0.03096
 585.19;25167.620;   72.082;34147.840; 0.62616; 0.03062
 585.77;24838.400;   69.280;34324.949; 0.61832; 0.03027
 586.36;24447.464;   34.775;34220.977; 0.61028; 0.02991
 586.94;24114.421;   45.182;34264.648; 0.60369; 0.02961
 587.52;23813.175;   16.577;34169.328; 0.59601; 0.02927
 588.11;23277.806;   53.080;34027.176; 0.58560; 0.02878
 588.69;23144.174;   76.376;34133.223; 0.58236; 0.02865
 589.27;22665.210;   27.181;34017.098; 0.57375; 0.02826
 589.85;22405.101;   34.080;34200.453; 0.56620; 0.02791
 590.44;22164.711;   21.681;34417.695; 0.56040; 0.02765
 591.02;21743.603;   37.680;34525.262; 0.55267; 0.02730
 591.60;21434.974;   32.876;34488.723; 0.54540; 0.02697
 592.18;20947.503;   49.980;34247.359; 0.53742; 0.02660
 592.77;20668.058;   48.875;34253.250; 0.53188; 0.02635
 593.35;20231.921;   16.382;34408.547; 0.52286; 0.02593
 593.93;19984.717;    4.282;34700.426; 0.51591; 0.02561
 594.51;19560.893;   28.279;34792.813; 0.50845; 0.02526
 595.10;19334.493;  -19.621;35006.313; 0.50449; 0.02509
 595.68;18996.913;   37.981;35184.211; 0.49638; 0.02471
 596.26;18619.197;    5.179;35202.832; 0.48853; 0.02435
 596.84;18260.081;  -11.623;35400.758; 0.48152; 0.02402
 597.43;17985.780;   44.577;35554.852; 0.47469; 0.02370
 598.01;17740.073;    5.076;35705.520; 0.47084; 0.02353
 598.59;17475.913;    6.281;35872.508; 0.46418; 0.02322
 599.17;17111.373;   16.776;35825.816; 0.45680; 0.02288
 599.76;16771.297;   -1.421;35690.133; 0.45008; 0.02256
 600.34;16463.055;   -2.426;35831.438; 0.44351; 0.02225
 600.92;16140.581;   36.577;35801.262; 0.43551; 0.02187
 601.50;15863.053;   -4.726;35980.527; 0.42966; 0.02160
 602.08;15604.867;   74.876;35747.195; 0.42348; 0.02131
 602.67;15371.961;   59.875;35853.664; 0.41899; 0.02110
 603.25;15130.805;    6.580;35959.473; 0.41427; 0.02089
 603.83;14714.306;   11.180;35792.375; 0.40505; 0.02044
 604.41;14436.389;   -2.522;35914.496; 0.39915; 0.02016
 604.99;14187.076;   47.377;36049.531; 0.39234; 0.01984
 605.58;13803.550;    9.674;35814.113; 0.38735; 0.01960
 606.16;13465.776;   14.777;35771.234; 0.37937; 0.01922
 606.74;13130.063;   29.775;35656.973; 0.37157; 0.01884
 607.32;12946.910;   15.481;35315.395; 0.36806; 0.01868
 607.90;12602.277;   76.477;35155.938; 0.35840; 0.01821
 608.48;12286.901;   21.180;34978.152; 0.35285; 0.01794
 609.07;12046.017;   53.182;34852.227; 0.34704; 0.01767
 609.65;11900.668;  109.676;34810.895; 0.34159; 0.01741
 610.23;11520.374;   24.477;34730.625; 0.33526; 0.01710
 610.81;11227.588;   -8.022;34496.090; 0.32902; 0.01680
 611.39;10938.473;  -18.224;34449.219; 0.32226; 0.01647
 611.97;10688.867;   23.876;34513.590; 0.31540; 0.01613
 612.55;10578.709;   29.181;34686.289; 0.31214; 0.01598
 613.14;10234.086;   -9.422;34700.883; 0.30462; 0.01561
 613.72; 9938.456;  -38.326;34388.938; 0.29936; 0.01536
 614.30; 9764.271;   -8.624;34659.613; 0.29272; 0.01503
 614.88; 9574.873;    2.576;34379.121; 0.28876; 0.01484
 615.46; 9249.681;    2.977;34221.359; 0.28064; 0.01444
 616.04; 9065.946;   25.773;33908.996; 0.27714; 0.01427
 616.62; 8826.855;   33.174;33753.336; 0.26965; 0.01390
 617.20; 8592.060;  -34.725;33597.859; 0.26592; 0.01372
 617.79; 8465.763;   50.475;33727.773; 0.25896; 0.01337
 618.37; 8165.804;  -18.220;33152.965; 0.25435; 0.01315
 618.95; 7986.070;   19.576;33161.605; 0.24920; 0.01289
 619.53; 7736.670;  -23.724;32939.707; 0.24399; 0.01263
 620.11; 7590.775;   -4.123;33004.430; 0.23989; 0.01243
 620.69; 7361.760;   -2.425;32959.859; 0.23384; 0.01213
 621.27; 7205.888;   33.878;32839.289; 0.22948; 0.01192
 621.85; 7034.372;   15.776;32868.613; 0.22447; 0.01167
 622.43; 6765.861;  -10.725;32800.363; 0.21904; 0.01139
 623.01; 6553.776;  -52.623;32647.637; 0.21470; 0.01118
 623.59; 6423.037;  -42.528;32613.248; 0.21102; 0.01100
 624.17; 6287.495;    6.579;32739.422; 0.20576; 0.01073
 624.76; 6113.551;  -11.726;32559.518; 0.20168; 0.01053
 625.34; 5936.386;  -10.722;32568.980; 0.19730; 0.01031
 625.92; 5772.689;   -0.122;32468.295; 0.19201; 0.01004
 626.50; 5633.282;  -31.322;32290.064; 0.18972; 0.00993
 627.08; 5460.699;   -6.320;32135.045; 0.18391; 0.00964
 627.66; 5393.291;    1.679;32275.604; 0.18166; 0.00953
 628.24; 5224.244;  -12.027;31949.385; 0.17789; 0.00934
 628.82; 5076.551;  -12.326;31947.217; 0.17311; 0.00910
 629.40; 4931.873;  -19.124;31771.922; 0.16926; 0.00890
 629.98; 4770.257;  -37.626;31671.943; 0.16499; 0.00869
 630.56; 4672.637;  -18.428;31838.951; 0.16133; 0.00850
 631.14; 4579.976;  -47.123;31703.836; 0.15978; 0.00843
 631.72; 4461.624;  -36.630;31831.287; 0.15558; 0.00821
 632.30; 4297.954;  -44.926;31650.430; 0.15137; 0.00800
 632.88; 4233.248;  -56.627;31645.305; 0.15023; 0.00795
 633.46; 4098.177;  -48.723;31591.738; 0.14594; 0.00773
 634.04; 4020.843;  -20.727;31630.781; 0.14244; 0.00755
 634.62; 3969.867;   13.576;31356.793; 0.14097; 0.00748
 635.20; 3838.957;   -5.226;31504.246; 0.13687; 0.00727
 635.78; 3650.559;  -48.825;31576.955; 0.13273; 0.00705
 636.36; 3573.558;  -48.025;31361.947; 0.13085; 0.00696
 636.94; 3579.625;   18.171;31584.695; 0.12882; 0.00686
 637.52; 3428.238;  -31.428;31522.854; 0.12570; 0.00670
 638.10; 3313.137;  -67.128;31509.953; 0.12315; 0.00657
 638.68; 3274.029;  -30.029;31569.314; 0.12072; 0.00644
 639.26; 3259.180;  -15.123;31614.053; 0.12023; 0.00642
 639.84; 3233.769;   30.876;31718.201; 0.11784; 0.00630
 640.42; 3054.461;  -48.125;31593.980; 0.11453; 0.00613
 641.00; 2947.662;  -72.625;31727.652; 0.11136; 0.00597
 641.58; 2911.964;  -32.725;31806.523; 0.10899; 0.00584
 642.16; 2834.465;  -36.525;31878.197; 0.10625; 0.00570
 642.74; 2809.866;  -15.124;32005.869; 0.10486; 0.00563
 643.32; 2716.768;  -16.024;32003.541; 0.10181; 0.00547
 643.90; 2652.569;  -24.724;31874.514; 0.10020; 0.00539
 644.47; 2588.270;  -33.924;31967.086; 0.09866; 0.00531
 645.05; 2518.771;  -43.024;32259.957; 0.09636; 0.00520
 645.63; 2487.573;  -29.624;32513.930; 0.09473; 0.00511
 646.21; 2459.174;  -40.423;32526.102; 0.09443; 0.00510
 646.79; 2402.175;  -18.323;32665.674; 0.09161; 0.00495
 647.37; 2320.877;  -48.523;32710.047; 0.09017; 0.00488
 647.95; 2305.878;   11.777;32776.320; 0.08746; 0.00474
 648.53; 2251.379;  -17.623;32969.391; 0.08656; 0.00469
 649.11; 2170.581;  -59.123;33030.465; 0.08550; 0.00464
 649.69; 2095.782;  -62.923;33200.035; 0.08294; 0.00450
 650.27; 2093.783;  -37.322;33310.707; 0.08198; 0.00446
 650.85; 2039.885;  -50.422;33928.180; 0.08045; 0.00438
 651.42; 1987.086;  -54.322;34418.152; 0.07898; 0.00430
 652.00; 1903.387;  -69.822;34969.625; 0.07618; 0.00415
 652.58; 1900.689;  -42.522;35191.797; 0.07528; 0.00411
 653.16; 1871.490;  -49.022;36135.668; 0.07456; 0.00407
 653.74; 1879.191;  -19.021;36648.441; 0.07377; 0.00403
 654.32; 1815.893;    0.879;37165.813; 0.07062; 0.00386
 654.90; 1773.094;  -21.321;37183.387; 0.06984; 0.00382
 655.48; 1704.495;  -53.621;36928.457; 0.06871; 0.00376
 656.05; 1655.297;  -79.821;36971.133; 0.06782; 0.00372
 656.63; 1663.198;  -44.121;37052.504; 0.06681; 0.00367
 657.21; 1661.699;  -39.120;36949.676; 0.06669; 0.00366
 657.79; 1666.300;   20.480;36851.949; 0.06439; 0.00354
 658.37; 1720.102;   92.380;36239.219; 0.06410; 0.00353
 658.95; 1533.203;  -40.820;35664.891; 0.06215; 0.00342
 659.53; 1509.104;  -26.220;35354.664; 0.06044; 0.00333
 660.10; 1457.406;  -46.620;34605.535; 0.05971; 0.00329
 660.68; 1427.407;  -48.119;34863.910; 0.05848; 0.00323
 661.26; 1431.108;  -22.219;34861.480; 0.05763; 0.00319
 661.84; 1394.410;   -6.319;34877.855; 0.05581; 0.00309
 662.42; 1379.411;  -33.619;34987.824; 0.05634; 0.00312
 663.00; 1402.312;    2.181;35223.297; 0.05584; 0.00309
 663.57; 1314.814;  -25.819;35418.969; 0.05348; 0.00297
 664.15; 1256.415;  -59.519;35596.441; 0.05238; 0.00291
 664.73; 1267.716;  -22.218;35720.516; 0.05155; 0.00286
 665.31; 1235.118;  -41.418;35988.887; 0.05096; 0.00283
 665.89; 1219.919;  -33.618;36325.660; 0.04984; 0.00277
 666.46; 1172.720;  -65.918;36449.031; 0.04923; 0.00274
 667.04; 1137.122;  -67.318;36462.703; 0.04793; 0.00267
 667.62; 1135.723;  -53.018;36704.078; 0.04728; 0.00264
 668.20; 1154.824;  -13.117;36966.848; 0.04648; 0.00260
 668.78; 1107.326;  -47.417;37359.223; 0.04570; 0.00255
 669.35; 1289.427;  130.883;37649.895; 0.04586; 0.00257
 669.93; 1067.528;  -43.617;37991.066; 0.04378; 0.00245
 670.51; 1033.929;  -76.017;38145.738; 0.04366; 0.00245
 671.09; 1014.831;  -49.617;38209.109; 0.04178; 0.00234
 671.66; 1043.632;  -13.216;38580.684; 0.04136; 0.00232
 672.24;  982.333;  -62.016;38670.656; 0.04092; 0.00230
 672.82;  997.635;  -34.916;39357.125; 0.04019; 0.00226
 673.40;  947.736;  -60.016;39317.500; 0.03936; 0.00222
 673.97;  957.937;  -39.716;39754.371; 0.03895; 0.00219
 674.55;  902.939;  -69.416;40012.742; 0.03800; 0.00214
 675.13;  922.140;  -27.216;40245.215; 0.03711; 0.00209
 675.71;  867.941;  -81.115;40351.789; 0.03718; 0.00210
 676.28;  904.943;  -32.215;40497.563; 0.03676; 0.00208
 676.86;  875.944;  -35.215;40881.934; 0.03550; 0.00201
 677.44;  851.945;  -39.115;41243.406; 0.03455; 0.00196
 678.01;  809.447;  -56.715;41566.777; 0.03336; 0.00189
 678.59;  821.648;  -41.615;41856.949; 0.03320; 0.00188
 679.17;  848.949;  -15.414;42126.723; 0.03306; 0.00188
 679.75;  793.551;  -61.014;42527.496; 0.03251; 0.00185
 680.32;  757.552;  -63.114;42799.965; 0.03113; 0.00177
 680.90;  745.453;  -73.114;42983.039; 0.03102; 0.00177
 681.48;  765.755;  -35.014;43704.012; 0.03002; 0.00171
 682.05;  790.256;  -15.214;43718.582; 0.03031; 0.00173
 682.63;  690.057;  -83.013;44042.055; 0.02911; 0.00166
 683.21;  708.958;  -66.313;44531.629; 0.02897; 0.00165
 683.78;  698.960;  -48.413;44788.398; 0.02791; 0.00160
 684.36;  661.661;  -67.313;44854.273; 0.02726; 0.00156
 684.94;  655.762;  -70.513;45147.445; 0.02716; 0.00155
 685.52;  678.164;  -45.613;45579.016; 0.02702; 0.00155
 686.09;  627.065;  -63.112;45676.688; 0.02585; 0.00148
 686.67;  629.366;  -72.812;45566.063; 0.02637; 0.00151
 687.25;  630.268;  -34.212;45785.234; 0.02500; 0.00144
 687.82;  591.369;  -59.912;45951.406; 0.02453; 0.00141
 688.40;  600.770;  -33.312;46290.379; 0.02381; 0.00137
 688.97;  564.372;  -63.312;46223.852; 0.02366; 0.00136
 689.55;  558.373;  -73.912;46394.621; 0.02378; 0.00137
 690.13;  574.374;  -32.711;46349.594; 0.02289; 0.00132
 690.70;  603.476;    3.589;46622.266; 0.02268; 0.00131
 691.28;  560.077;  -30.511;46828.539; 0.02227; 0.00129
 691.86;  535.978;  -26.811;47108.512; 0.02127; 0.00123
 692.43;  506.280;  -49.811;47368.785; 0.02102; 0.00122
 693.01;  523.681;  -48.211;47615.758; 0.02161; 0.00125
 693.59;  567.882;    4.790;47501.730; 0.02130; 0.00123
 694.16;  465.584;  -71.310;47670.801; 0.02037; 0.00118
 694.74;  478.485;  -35.810;48102.574; 0.01949; 0.00113
 695.31;  446.586;  -67.010;48244.445; 0.01946; 0.00113
 695.89;  435.587;  -65.610;48315.719; 0.01907; 0.00111
 696.47;  425.089;  -65.310;48414.789; 0.01866; 0.00109
 697.04;  520.190;   27.591;48520.863; 0.01879; 0.00109
 697.62;  462.191;  -11.709;48766.734; 0.01800; 0.00105
 698.19;  436.193;  -43.109;48808.207; 0.01826; 0.00107
 698.77;  452.394;  -14.509;49016.680; 0.01773; 0.00104
 699.34;  429.395;  -23.609;49065.551; 0.01725; 0.00101
 699.92;  412.697;  -31.909;49022.223; 0.01695; 0.00099
 700.50;  360.698;  -62.509;49321.195; 0.01611; 0.00094
 701.07;  395.399;  -41.808;49435.668; 0.01669; 0.00098
 701.65;  395.301;  -40.408;49736.641; 0.01655; 0.00097
 702.22;  399.602;  -27.708;49895.914; 0.01625; 0.00095
 702.80;  394.803;  -12.708;49964.785; 0.01557; 0.00091
 703.37;  377.305;  -17.408;50193.457; 0.01507; 0.00089
 703.95;  367.706;  -25.908;50479.629; 0.01506; 0.00089
 704.52;  342.607;  -36.807;50941.102; 0.01446; 0.00085
 705.10;  308.209;  -71.907;51257.973; 0.01452; 0.00086
 705.68;  296.410;  -71.807;51457.348; 0.01405; 0.00083
 706.25;  302.911;  -51.107;51790.617; 0.01351; 0.00080
 706.83;  313.513;  -19.407;51709.492; 0.01275; 0.00075
 707.40;  368.014;   -5.507;51802.363; 0.01431; 0.00085
 707.98;  325.915;  -32.306;52174.938; 0.01368; 0.00081
 708.55;  286.016;  -41.406;52212.406; 0.01253; 0.00074
 709.13;  293.818;  -39.006;52351.980; 0.01274; 0.00076
 709.70;  320.419;  -10.106;52634.453; 0.01268; 0.00075
 710.28;  295.620;  -34.606;52829.727; 0.01263; 0.00075
 710.85;  276.122;  -46.506;52866.598; 0.01239; 0.00074
 711.43;  247.023;  -57.805;53221.270; 0.01165; 0.00069
 712.00;  312.424;    4.195;53035.141; 0.01185; 0.00071
 712.58;  265.526;  -32.305;53267.813; 0.01143; 0.00068
 713.15;  276.327;  -18.105;53512.387; 0.01130; 0.00067
 713.73;  411.828;  106.895;53688.059; 0.01171; 0.00070
 714.30;  275.030;   -7.605;53973.031; 0.01086; 0.00065
 714.88;  221.131;  -56.705;53874.602; 0.01068; 0.00064
 715.45;  262.032;  -12.804;54110.676; 0.01060; 0.00063
 716.03;  233.034;  -38.504;54504.449; 0.01045; 0.00063
 716.60;  235.535;  -36.304;54248.020; 0.01053; 0.00063
 717.17;  219.236;  -50.204;54334.492; 0.01048; 0.00063
 717.75;  232.538;  -28.204;54719.965; 0.01010; 0.00061
 718.32;  246.739;   -5.404;54422.438; 0.00982; 0.00059
 718.90;  194.140;  -44.003;54219.508; 0.00931; 0.00056
 719.47;  210.542;  -34.803;54395.980; 0.00962; 0.00058
 720.05;  224.243;  -19.203;54543.352; 0.00955; 0.00057
 720.62;  207.644;  -32.503;54725.727; 0.00942; 0.00057
 721.20;  239.945;    1.497;54603.398; 0.00943; 0.00057
 721.77;  225.047;  -13.003;54810.770; 0.00942; 0.00057
 722.34;  213.148;  -25.502;54964.742; 0.00944; 0.00057
 722.92;  160.849;  -69.302;54886.816; 0.00916; 0.00055
 723.49;  124.151;  -86.002;55052.387; 0.00837; 0.00051
 724.07;  199.252;  -14.402;55315.660; 0.00850; 0.00051
 724.64;  164.653;  -38.502;55283.133; 0.00812; 0.00049
 725.21;  180.055;  -36.502;55661.605; 0.00863; 0.00052
 725.79;  190.556;  -14.802;55881.777; 0.00818; 0.00050
 726.36;  170.657;  -24.801;56024.648; 0.00780; 0.00047
 726.94;  155.959;  -42.201;56315.820; 0.00792; 0.00048
 727.51;  166.660;  -31.701;56807.895; 0.00789; 0.00048
 728.08;  157.061;  -40.401;56846.766; 0.00789; 0.00048
 728.66;  167.063;  -36.201;57255.438; 0.00813; 0.00050
 729.23;  120.464;  -46.301;57826.512; 0.00665; 0.00041
 729.80;  122.465;  -65.500;57723.582; 0.00754; 0.00046
 730.38;  152.167;  -24.600;58136.555; 0.00708; 0.00043
 730.95;  124.068;  -48.200;58380.727; 0.00691; 0.00042
 731.53;  158.569;  -19.900;58386.398; 0.00716; 0.00044
 732.10;  165.270;  -26.100;58444.473; 0.00770; 0.00047
 732.67;  118.972;  -49.900;58673.445; 0.00681; 0.00042
 733.25;  174.773;   13.001;58645.816; 0.00654; 0.00040
 733.82;  118.274;  -41.199;58935.488; 0.00643; 0.00039
 734.39;  129.076;  -26.699;59133.359; 0.00629; 0.00039
 734.97;  112.977;  -48.699;59207.234; 0.00654; 0.00040
 735.54;  183.778;   24.901;59275.906; 0.00643; 0.00040
 736.11;  117.380;  -27.699;59227.777; 0.00590; 0.00036
 736.69;  178.981;   21.402;59661.551; 0.00639; 0.00039
 737.26;  127.482;  -17.298;59761.621; 0.00587; 0.00036
 737.83;   99.984;  -53.198;59570.594; 0.00624; 0.00038
 738.41;   95.185;  -65.298;59493.766; 0.00655; 0.00040
 738.98;   98.686;  -44.998;59380.039; 0.00587; 0.00036
 739.55;  147.388;    2.402;59269.609; 0.00593; 0.00037
 740.12;   94.189;  -43.198;59404.781; 0.00562; 0.00035
 740.70;   78.490;  -58.897;59095.055; 0.00565; 0.00035
 741.27;   71.792;  -58.297;59266.027; 0.00535; 0.00033
 741.84;   61.493;  -78.697;58997.301; 0.00579; 0.00036
 742.42;   88.094;  -47.997;58935.172; 0.00563; 0.00035
 742.99;  130.196;    2.903;59108.945; 0.00526; 0.00033
 743.56;   83.497;  -38.597;58782.516; 0.00508; 0.00032
 744.13;   52.598;  -60.096;58925.988; 0.00471; 0.00029
 744.71;  249.799;   98.204;59260.961; 0.00632; 0.00039
 745.28;  106.201;  -24.796;59793.035; 0.00546; 0.00034
 745.85;   68.902;  -48.396;60592.605; 0.00490; 0.00031
 746.42;   83.703;  -34.996;60780.477; 0.00500; 0.00031
 747.00;   82.605;  -27.496;60843.250; 0.00467; 0.00029
 747.57;  212.706;   94.605;61990.422; 0.00499; 0.00031
 748.14;   75.807;  -42.195;62691.895; 0.00500; 0.00031
 748.71;   90.209;  -16.295;62852.969; 0.00453; 0.00028
 749.29;   91.910;  -22.195;63047.340; 0.00487; 0.00030
 749.86;   94.811;  -34.295;62964.410; 0.00553; 0.00035
 750.43;   55.913;  -37.195;62938.785; 0.00401; 0.00025
 751.00;   41.514;  -60.395;63066.457; 0.00439; 0.00028
 751.58;   36.115;  -53.194;62976.328; 0.00386; 0.00024
 752.15;  220.717;  103.706;62703.602; 0.00509; 0.00032
 752.72;   32.918;  -67.394;62198.273; 0.00437; 0.00028
 753.29;  194.119;   53.406;61943.344; 0.00615; 0.00039
 753.86;   37.721;  -64.594;61476.219; 0.00449; 0.00028
 754.44;   74.222;  -19.394;60961.590; 0.00413; 0.00026
 755.01;   42.723;  -43.793;61186.664; 0.00382; 0.00024
 755.58;   45.125;  -41.493;61188.133; 0.00385; 0.00024
 756.15;   60.526;  -33.793;61287.309; 0.00420; 0.00027
 756.72;   88.027;   -8.993;61241.980; 0.00435; 0.00027
 757.29;   63.328;  -25.193;61520.852; 0.00397; 0.00025
 757.87;   33.230;  -66.893;61177.625; 0.00453; 0.00029
 758.44;   26.831;  -49.592;61340.598; 0.00346; 0.00022
 759.01;   63.632;  -33.492;61652.770; 0.00441; 0.00028
 759.58;   20.334;  -61.392;61150.539; 0.00374; 0.00024
 760.15;   81.935;  -19.092;61244.414; 0.00464; 0.00029
 760.72;   30.036;  -66.892;61275.887; 0.00447; 0.00028
 761.30;   20.738;  -57.292;61491.059; 0.00361; 0.00023
 761.87;   52.139;  -23.091;61700.730; 0.00349; 0.00022
 762.44;   18.740;  -58.191;61389.602; 0.00359; 0.00023
 763.01;   70.042;  -12.991;61658.973; 0.00388; 0.00025
 763.58;   67.943;  -14.891;61295.145; 0.00390; 0.00025
 764.15;   57.644;  -24.191;61126.418; 0.00387; 0.00025
 764.72;   40.346;  -36.591;61225.391; 0.00365; 0.00023
 765.30;   13.747;  -56.491;60961.664; 0.00335; 0.00021
 765.87;   25.348;  -36.690;60665.336; 0.00298; 0.00019
 766.44;   99.550;   14.410;60815.809; 0.00409; 0.00026
 767.01;   80.651;    3.110;60390.180; 0.00375; 0.00024
 767.58;  -11.048;  -90.290;60249.254; 0.00385; 0.00025
 768.15;   62.554;    4.410;60025.125; 0.00284; 0.00018
 768.72;   18.855;  -60.090;60071.797; 0.00386; 0.00025
 769.29;   14.856;  -67.089;59639.867; 0.00405; 0.00026
 769.86;   67.557;  -23.589;59723.941; 0.00451; 0.00029
 770.43;  -16.941;  -70.789;59481.012; 0.00269; 0.00017
 771.00;   22.560;  -23.889;59468.387; 0.00233; 0.00015
 771.58;   26.861;  -28.989;59318.758; 0.00280; 0.00018
 772.15;    8.463;  -52.189;58759.230; 0.00307; 0.00020
 772.72;   26.864;  -37.988;58501.004; 0.00331; 0.00021
 773.29;   22.565;  -35.288;58823.375; 0.00293; 0.00019
 773.86;    0.567;  -63.988;58642.848; 0.00330; 0.00021
 774.43;   30.568;  -45.688;58347.719; 0.00393; 0.00025
 775.00;   30.069;  -35.588;58084.594; 0.00341; 0.00022
 775.57;   37.471;  -19.788;58187.266; 0.00298; 0.00019
 776.14;   34.372;  -18.088;57666.438; 0.00275; 0.00018
 776.71;   46.473;   -8.287;57754.707; 0.00288; 0.00019
 777.28;   10.475;  -40.287;57916.582; 0.00268; 0.00017
 777.85;   18.776;  -35.687;57633.352; 0.00290; 0.00019
 778.42;   34.277;  -21.987;57701.227; 0.00301; 0.00020
 778.99;   53.379;   -5.487;57689.199; 0.00315; 0.00021
 779.56;   16.080;  -38.687;57683.570; 0.00296; 0.00019
 780.13;   20.581;  -32.086;57522.441; 0.00286; 0.00019
 780.70;   50.383;   -9.286;57127.715; 0.00327; 0.00021
 781.27;   35.784;   -7.286;57373.688; 0.00236; 0.00015
 781.84;   -6.915;  -46.486;57035.359; 0.00219; 0.00014
 782.41;   50.386;    2.714;57011.230; 0.00265; 0.00017
 782.98;   20.188;  -40.186;56933.703; 0.00337; 0.00022
 783.55;   25.889;  -26.885;56749.277; 0.00297; 0.00019
 784.12;   27.890;   -8.485;56663.449; 0.00205; 0.00013
 784.69;   44.392;   -0.885;56571.520; 0.00257; 0.00017
 785.26;   15.893;  -38.585;56155.594; 0.00312; 0.00020
 785.83;  -32.306;  -65.785;56493.266; 0.00192; 0.00013
 786.40;   25.496;    0.715;56145.137; 0.00143; 0.00009
 786.97;   47.097;    3.616;56138.109; 0.00252; 0.00017
 787.54;   53.098;   10.016;55947.883; 0.00252; 0.00017
 788.11;   48.700;    3.716;55781.355; 0.00264; 0.00017
 788.68;    0.201;  -43.284;55704.926; 0.00257; 0.00017
 789.25;   14.802;  -19.784;55524.000; 0.00206; 0.00014
 789.82;   32.204;  -19.184;55552.473; 0.00307; 0.00020
 790.39;   30.605;  -20.284;55451.941; 0.00306; 0.00020
 790.96;   -4.194;  -30.183;55430.816; 0.00157; 0.00010
 791.52;   -9.692;  -42.683;55217.586; 0.00201; 0.00013
 792.09;   57.909;   20.717;55290.262; 0.00227; 0.00015
 792.66;   23.910;  -17.783;54793.531; 0.00258; 0.00017
 793.23;   78.212;   29.917;54894.703; 0.00299; 0.00020
 793.80;   26.713;  -20.883;54770.176; 0.00296; 0.00020
 794.37;   26.114;  -12.482;54456.648; 0.00242; 0.00016
 794.94;   23.815;  -15.882;54176.121; 0.00250; 0.00017
 795.51;   23.417;  -28.782;54046.492; 0.00331; 0.00022
 796.08;   -0.182;  -24.282;53871.066; 0.00153; 0.00010
 796.65;    9.119;  -32.682;53578.039; 0.00268; 0.00018
 797.21;   36.821;   15.018;53301.109; 0.00140; 0.00009
 797.78;   27.222;   -2.581;52997.883; 0.00193; 0.00013
 798.35;   70.823;   21.219;52509.055; 0.00323; 0.00022
 798.92;  627.325;  513.919;52532.129; 0.00741; 0.00049
 799.49;    7.826;  -35.681;52089.301; 0.00287; 0.00019
 800.06;   55.027;   28.719;51915.273; 0.00175; 0.00012
 800.63;   45.229;   14.719;51659.145; 0.00204; 0.00014
 801.20;   18.930;   -5.981;51781.215; 0.00167; 0.00011
 801.76;   18.131;  -16.280;51808.391; 0.00232; 0.00016
 802.33;   19.733;  -19.980;51489.063; 0.00269; 0.00018
 802.90;   54.034;   13.720;51322.234; 0.00276; 0.00018
 803.47;   22.235;  -18.880;51648.906; 0.00280; 0.00019
 804.04;   11.937;  -35.980;51628.277; 0.00328; 0.00022
 804.61;   45.338;   19.920;51369.352; 0.00174; 0.00012
 805.17;   16.539;  -29.679;51365.223; 0.00318; 0.00021
 805.74;    3.341;  -39.079;51444.695; 0.00292; 0.00020
 806.31;   39.842;   -5.479;51037.367; 0.00315; 0.00021
 806.88;  -28.157;  -54.379;51096.238; 0.00182; 0.00012
 807.45;  -37.156;  -68.279;50997.012; 0.00217; 0.00015
 808.01;   24.746;  -10.179;50947.582; 0.00244; 0.00016
 808.58;   76.347;   46.122;50841.555; 0.00213; 0.00014
 809.15;   12.148;   -2.878;50956.328; 0.00106; 0.00007
 809.72;   52.850;   -0.878;50689.500; 0.00382; 0.00026
 810.29;   46.251;  -17.978;50169.973; 0.00461; 0.00031
 810.85;    9.552;  -26.178;50108.844; 0.00258; 0.00017
 811.42;   13.754;  -28.178;49628.117; 0.00307; 0.00021
 811.99;   -6.545;  -21.777;49373.191; 0.00112; 0.00008
 812.56;  -14.144;  -33.177;48973.660; 0.00142; 0.00010
 813.12;   32.558;   -3.077;48451.535; 0.00269; 0.00018
 813.69;   12.759;  -13.577;48256.105; 0.00200; 0.00014
 814.26;    5.560;  -20.277;47696.578; 0.00199; 0.00014
 814.83;   -6.438;  -31.777;47276.250; 0.00197; 0.00013
 815.39;  -27.037;  -59.377;47147.422; 0.00254; 0.00017
 815.96;    2.764;  -17.676;46894.797; 0.00161; 0.00011
 816.53;   79.466;   31.324;46686.770; 0.00383; 0.00026
 817.10;   -8.833;  -36.476;46572.539; 0.00222; 0.00015
 817.66;  -34.232;  -62.676;46288.414; 0.00230; 0.00016
 818.23;  -48.930;  -64.176;46067.184; 0.00124; 0.00008
 818.80;  -24.229;  -57.476;45888.656; 0.00272; 0.00019
 819.37;   20.372;  -14.975;45872.930; 0.00291; 0.00020
 819.93;  -20.227;  -52.875;45789.703; 0.00270; 0.00018
 820.50;  -34.825;  -60.375;45226.676; 0.00213; 0.00015
 821.07;  -39.224;  -53.175;45200.645; 0.00117; 0.00008
 821.63;  110.577;   55.925;44835.719; 0.00462; 0.00032
 822.20;   90.979;   64.025;44818.590; 0.00228; 0.00016
 822.77;   23.980;  -15.174;44641.164; 0.00334; 0.00023
 823.34;    5.081;  -35.774;44447.734; 0.00351; 0.00024
 823.90;  -15.817;  -36.574;44150.906; 0.00180; 0.00012
 824.47;   20.484;  -11.074;44035.379; 0.00275; 0.00019
 825.04;   -7.215;  -41.474;43910.254; 0.00300; 0.00021
 825.60;    3.887;  -14.574;43882.324; 0.00162; 0.00011
 826.17;  -35.612;  -55.874;43471.496; 0.00180; 0.00012
 826.74;  -24.211;  -44.173;43311.770; 0.00178; 0.00012
 827.30;  -34.109;  -53.173;42923.641; 0.00171; 0.00012
 827.87;   -3.508;  -20.273;42849.914; 0.00151; 0.00010
 828.43;    1.693;  -26.873;42678.484; 0.00259; 0.00018
 829.00;  -38.205;  -65.173;42585.656; 0.00245; 0.00017
 829.57;    4.096;  -25.773;42440.332; 0.00273; 0.00019
 830.13;  -55.703;  -73.272;42015.703; 0.00162; 0.00011
 830.70;  -24.501;  -56.972;41864.375; 0.00299; 0.00021
 831.27;   -5.500;  -33.672;41474.148; 0.00262; 0.00018
 831.83;  -34.099;  -53.372;41387.020; 0.00180; 0.00013
 832.40;   -8.198;  -22.572;41185.090; 0.00135; 0.00009
 832.97;   34.504;    6.828;41002.664; 0.00261; 0.00018
 833.53;  -15.495;  -43.071;41077.836; 0.00261; 0.00018
 834.10;  -20.094;  -39.071;40836.008; 0.00181; 0.00013
 834.66;  -19.892;  -53.871;40648.781; 0.00326; 0.00023
 835.23;   -4.691;  -42.671;40573.055; 0.00365; 0.00025
 835.80;  -26.190;  -61.771;40440.824; 0.00345; 0.00024
 836.36;  -17.288;  -41.671;40334.199; 0.00237; 0.00017
 836.93;   11.213;  -18.970;40271.168; 0.00294; 0.00021
 837.49;   48.614;   18.630;40151.543; 0.00293; 0.00021
 838.06;   -0.184;  -28.470;40058.313; 0.00278; 0.00019
 838.62;  -11.783;  -48.070;39899.086; 0.00359; 0.00025
 839.19;  -14.082;  -37.770;39905.758; 0.00235; 0.00016
 839.76;  -27.080;  -32.870;39728.430; 0.00058; 0.00004
 840.32;  -36.779;  -66.470;39485.805; 0.00298; 0.00021
 840.89;  218.422;  172.031;39678.176; 0.00466; 0.00033
 841.45;    2.424;  -25.669;39488.348; 0.00284; 0.00020
 842.02;  -52.275;  -76.369;39167.621; 0.00245; 0.00017
 842.58;  -28.874;  -50.069;39187.094; 0.00217; 0.00015
 843.15;   31.028;   -4.269;39180.465; 0.00362; 0.00026
 843.71;  -25.271;  -48.569;39060.836; 0.00240; 0.00017
 844.28;  -52.670;  -79.768;38864.809; 0.00281; 0.00020
 844.84;    5.631;  -21.268;38862.082; 0.00279; 0.00020
 845.41;  -13.667;  -51.168;38615.355; 0.00392; 0.00028
 845.97;  -33.466;  -56.768;38402.527; 0.00244; 0.00017
 846.54;  -17.165;  -51.168;38075.898; 0.00360; 0.00025
 847.10;  -12.663;  -35.168;38229.371; 0.00238; 0.00017
 847.67;  -27.862;  -58.667;37966.344; 0.00328; 0.00023
 848.23;  -21.961;  -48.767;38067.414; 0.00285; 0.00020
 848.80;    5.541;  -17.467;38042.086; 0.00246; 0.00017
 849.36;  -16.158;  -46.167;37738.262; 0.00323; 0.00023
 849.93;  -17.457;  -31.867;37655.934; 0.00156; 0.00011
 850.49;  -13.555;  -39.867;37582.004; 0.00286; 0.00020
 851.06;  -35.454;  -69.367;37505.277; 0.00370; 0.00026
 851.62;  -20.953;  -54.266;37262.051; 0.00367; 0.00026
 852.19;  -26.551;  -42.866;37233.020; 0.00180; 0.00013
 852.75;  -22.450;  -60.466;37155.895; 0.00421; 0.00030
 853.32;  -15.749;  -28.666;37105.266; 0.00144; 0.00010
 853.88;   -0.547;  -39.666;36902.438; 0.00439; 0.00031
 854.45;    5.054;  -18.166;37137.012; 0.00259; 0.00019
 855.01;   29.855;   -2.965;37010.383; 0.00368; 0.00026
 855.57;  -32.043;  -51.465;36921.453; 0.00219; 0.00016
 856.14;  -32.042;  -63.265;36626.629; 0.00355; 0.00025
 856.70;  -24.241;  -49.365;36714.199; 0.00286; 0.00020
 857.27;  -20.440;  -44.865;36510.172; 0.00280; 0.00020
 857.83;  -71.838;  -84.265;36357.344; 0.00143; 0.00010
 858.40;   31.563;   -2.264;36322.215; 0.00389; 0.00028
 858.96;  -21.836;  -44.364;36140.387; 0.00262; 0.00019
 859.52;  -15.234;  -42.264;36171.262; 0.00313; 0.00022
 860.09;   -0.233;  -43.564;35921.734; 0.00506; 0.00036
 860.65;  -12.832;  -34.264;35764.504; 0.00251; 0.00018
 861.22;  -21.430;  -42.764;35727.977; 0.00251; 0.00018
 861.78;   -0.729;  -17.363;35638.051; 0.00196; 0.00014
 862.34;  -17.328;  -50.163;35649.922; 0.00389; 0.00028
 862.91;  -12.526;  -41.863;35682.594; 0.00348; 0.00025
 863.47;  107.275;   60.137;35224.566; 0.00566; 0.00041
 864.03;  -43.124;  -59.263;35401.738; 0.00193; 0.00014
 864.60;    9.178;  -21.663;35293.512; 0.00370; 0.00027
 865.16;  -41.221;  -66.963;35132.184; 0.00312; 0.00023
 865.73;   -9.220;  -31.262;35111.855; 0.00268; 0.00019
 866.29;  111.182;   71.938;35043.527; 0.00478; 0.00035
 866.85;  -49.517;  -70.162;34721.301; 0.00253; 0.00018
 867.42;  -16.616;  -40.162;34616.371; 0.00290; 0.00021
 867.98;  -41.714;  -64.262;34527.145; 0.00279; 0.00020
 868.54;   11.687;  -24.162;34441.617; 0.00445; 0.00032
 869.11;  -44.112;  -61.461;34366.289; 0.00216; 0.00016
 869.67;  -16.411;  -42.861;34234.863; 0.00331; 0.00024
 870.23;  -22.409;  -40.861;34228.133; 0.00233; 0.00017
 870.80;  -16.408;  -52.761;33878.707; 0.00463; 0.00034
 871.36;  -31.007;  -63.361;33584.379; 0.00417; 0.00030
 871.92;   48.195;    8.139;33514.352; 0.00519; 0.00038
 872.48;  -49.004;  -60.360;33352.023; 0.00148; 0.00011
 873.05;    1.197;  -35.560;33107.297; 0.00484; 0.00035
 873.61;  -21.201;  -45.160;33006.969; 0.00316; 0.00023
 874.17;  -14.900;  -40.060;32897.238; 0.00334; 0.00024
 874.74;  -33.700;  -53.560;32747.340; 0.00265; 0.00019
 875.30;   -8.700;  -37.760;32872.738; 0.00388; 0.00028
 875.86;  -22.800;  -51.360;32962.238; 0.00381; 0.00028
 876.42;  -32.000;  -67.560;32924.941; 0.00476; 0.00035
 876.99;  -24.500;  -48.260;32876.039; 0.00319; 0.00023
 877.55;  -20.500;  -37.360;32981.738; 0.00226; 0.00017
 878.11;    9.300;  -22.860;32831.238; 0.00433; 0.00032
 878.68;  -12.400;  -32.460;32682.740; 0.00271; 0.00020
 879.24;   -7.500;  -39.460;32631.039; 0.00434; 0.00032
 879.80;   -1.200;  -20.160;32451.240; 0.00259; 0.00019
 880.36;  -10.300;  -46.060;32387.539; 0.00490; 0.00036
 880.92;   -1.000;  -26.660;32337.240; 0.00351; 0.00026
 881.49;   -8.500;  -40.960;32357.840; 0.00446; 0.00033
 882.05;   -3.500;  -23.460;32220.439; 0.00276; 0.00020
 882.61;   29.500;   10.040;32083.240; 0.00270; 0.00020
 883.17;  -11.300;  -41.360;32091.740; 0.00418; 0.00031
 883.74;  -18.600;  -34.960;32096.439; 0.00229; 0.00017
 884.30;  -20.600;  -64.260;31958.539; 0.00612; 0.00045
 884.86;   17.600;   -1.260;32176.439; 0.00264; 0.00020
 885.42;  -25.000;  -51.460;32150.439; 0.00372; 0.00027
 885.98;  -38.800;  -57.160;32145.740; 0.00257; 0.00019
 886.55;  -11.300;  -37.560;32321.740; 0.00367; 0.00027
 887.11;   -9.100;  -30.260;32423.840; 0.00295; 0.00022
 887.67;  -22.100;  -20.460;32421.840;-0.00023;-0.00002
 888.23;  -36.100;  -65.360;32570.340; 0.00407; 0.00030
 888.79;   14.500;  -21.260;32596.740; 0.00498; 0.00037
 889.35;  -39.600;  -61.160;32642.240; 0.00300; 0.00022
 889.92;   25.100;  -17.060;32765.641; 0.00585; 0.00044
 890.48;  148.300;  103.240;32825.039; 0.00623; 0.00046
 891.04;  -33.500;  -43.860;32990.238; 0.00143; 0.00011
 891.60;  -46.000;  -53.960;33047.441; 0.00110; 0.00008
 892.16;    1.900;  -20.360;33188.941; 0.00305; 0.00023
 892.72;  -32.100;  -52.660;33357.141; 0.00281; 0.00021
 893.29;  -37.900;  -67.860;33494.738; 0.00408; 0.00030
 893.85;  -26.300;  -38.260;33665.738; 0.00162; 0.00012
 894.41;  -46.200;  -50.860;33926.641; 0.00063; 0.00005
 894.97;   15.700;  -10.160;33988.340; 0.00349; 0.00026
 895.53;  -24.600;  -52.860;34219.238; 0.00380; 0.00028
 896.09;  -12.500;  -52.360;34269.340; 0.00534; 0.00040
 896.65;  -27.700;  -45.760;34260.641; 0.00242; 0.00018
 897.21;    4.500;  -11.360;34229.039; 0.00214; 0.00016
 897.77;  -15.200;  -39.360;34355.941; 0.00325; 0.00024
 898.34;  -18.000;  -35.160;34076.141; 0.00232; 0.00017
 898.90;    5.300;  -22.960;33978.840; 0.00383; 0.00029
 899.46;    1.300;  -22.260;34144.141; 0.00320; 0.00024
 900.02;   31.100;    5.240;33674.641; 0.00354; 0.00027
 900.58;   -9.800;  -25.260;33671.941; 0.00213; 0.00016
 901.14;   32.800;   11.740;33538.441; 0.00292; 0.00022
 901.70;    6.300;  -14.960;33275.141; 0.00297; 0.00022
 902.26;  -38.600;  -55.160;33006.840; 0.00233; 0.00018
 902.82;   29.400;   -4.560;33014.641; 0.00480; 0.00036
 903.38;  -12.700;  -45.360;32705.539; 0.00466; 0.00035
 903.94;   -3.900;  -10.360;32674.340; 0.00093; 0.00007
 904.50;  -15.600;  -32.260;32451.039; 0.00241; 0.00018
 905.06;   -5.800;  -40.660;32229.039; 0.00506; 0.00038
 905.62;   -4.900;  -22.960;31916.439; 0.00265; 0.00020
 906.18;   -3.600;  -39.760;31805.539; 0.00533; 0.00040
 906.74;  -47.300;  -67.460;31546.039; 0.00300; 0.00023
 907.30;   36.800;   -3.160;31284.939; 0.00600; 0.00045
 907.86;    6.100;   -7.460;31088.240; 0.00205; 0.00016
 908.42;   19.700;   20.040;30928.240;-0.00005; 0.00000
 908.98;   19.600;    4.940;30791.240; 0.00225; 0.00017
 909.54;   -0.700;  -10.960;30862.939; 0.00158; 0.00012
 910.10;   27.300;    7.340;30640.740; 0.00308; 0.00023
 910.66;    4.100;  -22.660;30446.240; 0.00417; 0.00032
 911.22;    6.800;  -22.860;30321.141; 0.00464; 0.00035
 911.78;  -40.100;  -62.760;29941.939; 0.00358; 0.00027
 912.34;   19.100;    0.540;29914.439; 0.00295; 0.00022
 912.90;   16.900;    8.240;29777.039; 0.00139; 0.00011
 913.46;  -21.300;  -57.660;29485.039; 0.00586; 0.00045
 914.02;  -30.000;  -50.860;29482.439; 0.00337; 0.00026
 914.58;  -12.200;  -34.560;29279.641; 0.00363; 0.00028
 915.14;  -18.400;  -39.560;29122.939; 0.00345; 0.00026
 915.70;   -6.000;  -26.460;29026.539; 0.00337; 0.00026
 916.26;   10.100;  -11.060;28810.641; 0.00350; 0.00027
 916.82;  -36.400;  -53.760;28635.939; 0.00288; 0.00022
 917.38;   35.100;   -4.360;28403.039; 0.00660; 0.00051
 917.94;  117.600;   77.740;28214.240; 0.00672; 0.00052
 918.50;   -8.200;  -43.160;28052.641; 0.00592; 0.00045
 919.06;   15.900;  -12.660;27890.340; 0.00487; 0.00037
 919.62;  -13.100;  -44.260;27654.439; 0.00537; 0.00041
 920.18;   -0.300;  -19.560;27634.840; 0.00331; 0.00025
 920.73;  -19.000;  -28.760;27550.340; 0.00169; 0.00013
 921.29;  -19.800;  -39.960;27017.641; 0.00353; 0.00027
 921.85;    2.400;  -19.360;27000.840; 0.00384; 0.00030
 922.41;  -25.400;  -48.960;26863.840; 0.00416; 0.00032
 922.97;  -11.100;  -28.260;26599.539; 0.00306; 0.00024
 923.53;   31.900;    6.840;26105.939; 0.00451; 0.00035
 924.09;  -16.000;  -39.960;26005.141; 0.00434; 0.00034
 924.65;  -20.000;  -44.460;25817.740; 0.00448; 0.00035
 925.21;  -19.900;  -38.360;25588.039; 0.00341; 0.00026
 925.76;  -31.200;  -37.160;25424.439; 0.00110; 0.00009
 926.32;    6.300;  -18.460;25229.539; 0.00461; 0.00036
 926.88;   -6.300;  -26.860;25060.340; 0.00385; 0.00030
 927.44;   -2.500;  -30.560;24711.039; 0.00533; 0.00041
 928.00;  131.600;  103.140;24361.641; 0.00545; 0.00042
 928.56;   14.500;  -24.160;24109.539; 0.00745; 0.00058
 929.12;   -5.800;  -22.460;23807.740; 0.00324; 0.00025
 929.67;   25.900;   11.240;23666.840; 0.00286; 0.00022
 930.23;  -25.300;  -44.060;23355.141; 0.00370; 0.00029
 930.79;    1.600;  -22.260;22957.439; 0.00477; 0.00037
 931.35;  -12.800;  -33.760;22612.039; 0.00422; 0.00033
 931.91;  -33.500;  -43.460;22275.939; 0.00203; 0.00016
 932.46;   17.700;  -17.460;21815.141; 0.00726; 0.00057
 933.02;  -26.700;  -44.760;21264.539; 0.00378; 0.00030
 933.58;  -33.700;  -48.760;20844.740; 0.00322; 0.00025
 934.14;  -46.700;  -75.860;20402.141; 0.00636; 0.00050
 934.70;  -35.600;  -52.060;19642.840; 0.00368; 0.00029
 935.25;  -14.300;  -32.560;19307.439; 0.00417; 0.00033
 935.81;   76.300;   46.540;18676.840; 0.00703; 0.00055
 936.37;   -2.000;  -41.860;17979.240; 0.00970; 0.00076
 936.93;   22.300;    4.940;17501.539; 0.00438; 0.00034
 937.49;   -4.000;  -33.060;16906.439; 0.00762; 0.00060
 938.04;  -11.200;  -27.860;16194.840; 0.00456; 0.00036
 938.60;  -31.700;  -49.460;15755.940; 0.00503; 0.00039
 939.16;  -29.800;  -41.560;15186.640; 0.00346; 0.00027
 939.72;  -55.500;  -45.660;14717.140;-0.00299;-0.00023
 940.27;   40.500;    5.340;14265.840; 0.01104; 0.00087
 940.83;  -25.600;  -30.960;14046.340; 0.00173; 0.00014
 941.39;   -6.100;  -21.960;13687.040; 0.00521; 0.00041
 941.94;  -50.100;  -74.960;13350.740; 0.00835; 0.00066
 942.50;  -11.000;  -32.560;13158.740; 0.00735; 0.00058
 943.06;   10.400;    5.340;13027.240; 0.00174; 0.00014
 943.62;   31.100;    9.540;12943.740; 0.00743; 0.00059
 944.17;    8.800;  -21.460;12754.540; 0.01051; 0.00083
 944.73;   49.100;   20.940;12761.440; 0.00977; 0.00077
 945.29;   20.900;  -10.860;12770.440; 0.01098; 0.00087
 945.84;  -41.000;  -58.560;12694.340; 0.00606; 0.00048
 946.40;  -52.600;  -63.660;12711.140; 0.00377; 0.00030
 946.96;   14.500;    1.240;12656.240; 0.00451; 0.00036
 947.52;  -33.200;  -40.660;12695.840; 0.00252; 0.00020
 948.07;   -1.200;  -35.260;12718.240; 0.01140; 0.00090
 948.63;   36.200;   21.340;12818.540; 0.00493; 0.00039
 949.19;   -4.200;  -30.760;12749.440; 0.00872; 0.00069
 949.74;  -63.100;  -80.460;12760.940; 0.00564; 0.00045
 950.30;    2.800;  -30.260;12769.340; 0.01065; 0.00085
 950.85;    1.000;  -22.260;12864.940; 0.00744; 0.00059
 951.41;  -38.600;  -58.160;12893.340; 0.00619; 0.00049
 951.97;   26.500;    5.540;12921.640; 0.00655; 0.00052
 952.52;    2.000;  -11.260;12865.640; 0.00412; 0.00033
 953.08;  -15.200;  -37.660;12883.640; 0.00692; 0.00055
 953.64;    4.400;  -29.560;12846.440; 0.01038; 0.00083
 954.19;   28.200;   -1.760;12893.040; 0.00907; 0.00072
 954.75;   33.800;   10.140;12872.140; 0.00713; 0.00057
 955.31;   43.900;    8.440;12867.940; 0.01059; 0.00085
 955.86;  -15.400;  -51.160;12774.540; 0.01063; 0.00085
 956.42;  -18.600;  -47.560;12672.940; 0.00858; 0.00069
 956.97;  -47.100;  -60.260;12694.140; 0.00388; 0.00031
 957.53;  -15.400;  -30.260;12611.240; 0.00439; 0.00035
 958.09;   -4.800;  -20.760;12552.340; 0.00468; 0.00038
 958.64;   -4.500;  -20.260;12570.040; 0.00460; 0.00037
 959.20;   -9.800;  -21.960;12548.940; 0.00353; 0.00028
 959.75;  -29.600;  -29.960;12427.440; 0.00010; 0.00001
 960.31;  -13.000;  -33.860;12418.840; 0.00605; 0.00049
 960.86;   68.300;   19.440;12464.640; 0.01413; 0.00113
 961.42;   -2.800;  -29.560;12414.340; 0.00775; 0.00062
 961.98;  -48.100;  -50.460;12345.240; 0.00068; 0.00006
 962.53;  -13.000;  -42.460;12397.740; 0.00855; 0.00069
 963.09;   41.800;   11.640;12366.040; 0.00872; 0.00070
 963.64;   17.300;    6.040;12375.340; 0.00326; 0.00026
 964.20;  -44.300;  -62.260;12267.840; 0.00520; 0.00042
 964.75;  -17.000;  -24.260;12291.440; 0.00211; 0.00017
 965.31;  -31.400;  -74.160;12248.040; 0.01246; 0.00100
 965.86;  -12.900;  -36.360;12229.140; 0.00683; 0.00055
 966.42;   32.200;   34.440;12234.340;-0.00066;-0.00005
 966.97;   36.400;    3.540;12259.840; 0.00960; 0.00078
 967.53;  -12.500;  -22.060;12095.440; 0.00281; 0.00023
 968.08;  -25.200;  -47.460;12157.440; 0.00655; 0.00053
 968.64;   12.800;   -7.160;12042.340; 0.00591; 0.00048
 969.19;   24.000;   -3.160;12075.540; 0.00806; 0.00065
 969.75;   22.600;   14.040;12006.840; 0.00254; 0.00021
 970.30;    5.400;   -8.460;12064.140; 0.00412; 0.00033
 970.86;   11.800;   -6.260;11971.840; 0.00539; 0.00044
 971.41;   -6.800;  -25.960;11845.240; 0.00578; 0.00047
 971.97;    6.400;  -14.860;11835.640; 0.00641; 0.00052
 972.52;  -52.900;  -55.660;11665.740; 0.00084; 0.00007
 973.08;   33.500;   18.540;11714.240; 0.00456; 0.00037
 973.63;   56.600;   39.540;11663.040; 0.00521; 0.00042
 974.19;   13.500;   -9.060;11593.140; 0.00693; 0.00056
 974.74;    1.700;  -14.360;11666.640; 0.00496; 0.00040
 975.29;  267.800;  203.340;11620.240; 0.01999; 0.00163
 975.85;   54.600;   32.040;11558.040; 0.00703; 0.00057
 976.40;   39.100;    8.740;11484.040; 0.00956; 0.00078
 976.96;   23.200;    4.240;11406.940; 0.00600; 0.00049
 977.51;  -29.700;  -29.860;11398.840; 0.00005; 0.00000
 978.07;  -20.200;  -31.760;11290.240; 0.00369; 0.00030
 978.62;   17.400;    1.440;11281.240; 0.00513; 0.00042
 979.17;  352.600;  273.840;11228.340; 0.02543; 0.00208
 979.73;  -28.400;  -36.360;11150.440; 0.00259; 0.00021
 980.28;   22.400;    6.440;11178.640; 0.00521; 0.00043
 980.84;   16.000;    7.040;11049.840; 0.00295; 0.00024
 981.39;  -23.100;  -30.960;11067.040; 0.00260; 0.00021
 981.94;    8.000;    4.640;10985.940; 0.00112; 0.00009
 982.50;   23.600;  -14.560;10875.540; 0.01281; 0.00105
 983.05;   10.600;   -3.160;10793.640; 0.00465; 0.00038
 983.60;   65.400;   45.340;10866.340; 0.00680; 0.00056
 984.16;   39.600;   18.140;10723.040; 0.00737; 0.00061
 984.71;   14.900;    0.140;10737.640; 0.00508; 0.00042
 985.27;   -9.300;  -30.160;10610.940; 0.00728; 0.00060
 985.82;   20.200;    5.540;10600.940; 0.00514; 0.00042
 986.37;   34.600;   20.340;10579.940; 0.00504; 0.00042
 986.93;    5.200;   -7.560;10493.140; 0.00454; 0.00037
 987.48;  -31.600;  -38.060;10429.940; 0.00231; 0.00019
 988.03;   -2.500;  -12.360;10433.640; 0.00355; 0.00029
 988.59;  -10.000;  -21.760;10379.140; 0.00425; 0.00035
 989.14;   32.200;   -6.160;10316.040; 0.01410; 0.00117
 989.69;   -0.900;  -20.160;10319.540; 0.00712; 0.00059
 990.24;    2.100;  -22.960;10192.540; 0.00936; 0.00077
 990.80;  -24.600;  -35.660;10144.240; 0.00417; 0.00035
 991.35;  -36.100;  -51.160;10015.240; 0.00572; 0.00047
 991.90;   14.000;    1.340;10114.540; 0.00482; 0.00040
 992.46;  -11.400;  -37.460;10020.740; 0.01005; 0.00083
 993.01;  -30.800;  -36.260; 9927.640; 0.00212; 0.00018
 993.56;  166.100;  119.940; 9917.940; 0.01810; 0.00150
 994.11;   -3.800;  -11.460; 9840.440; 0.00303; 0.00025
 994.67;  -15.200;  -21.260; 9785.640; 0.00242; 0.00020
 995.22;  -13.700;  -30.460; 9703.340; 0.00675; 0.00056
 995.77;  -23.800;  -38.960; 9635.340; 0.00616; 0.00051
 996.33;   11.600;   -4.560; 9637.840; 0.00662; 0.00055
 996.88;  -19.700;  -27.760; 9517.540; 0.00332; 0.00028
 997.43;  -24.100;  -28.760; 9472.340; 0.00195; 0.00016
 997.98;   28.200;    3.140; 9370.640; 0.01058; 0.00088
 998.53;   32.300;   21.740; 9336.240; 0.00450; 0.00038
 999.09;   -3.500;  -30.660; 9233.940; 0.01171; 0.00098
 999.64;  -34.200;  -51.060; 9121.140; 0.00734; 0.00061
1000.19;  -18.900;  -44.160; 9086.640; 0.01110; 0.00093
1000.74;  -51.600;  -57.060; 9052.540; 0.00243; 0.00020
1001.30;  -21.000;  -19.160; 8993.240;-0.00083;-0.00007
1001.85;  -12.000;  -25.660; 8888.440; 0.00621; 0.00052
1002.40;  -32.100;  -49.260; 8808.140; 0.00792; 0.00066
1002.95;    4.600;    2.840; 8765.740; 0.00082; 0.00007
1003.50;   40.600;   15.340; 8714.040; 0.01201; 0.00101
1004.06;    0.300;  -28.160; 8593.740; 0.01378; 0.00116
1004.61;  148.400;  109.140; 8532.040; 0.01933; 0.00162
1005.16;  179.500;  142.040; 8522.340; 0.01866; 0.00157
1005.71;   12.700;   -2.660; 8537.740; 0.00773; 0.00065
1006.26;  -12.800;  -31.660; 8503.640; 0.00963; 0.00081
1006.81;  -44.400;  -57.860; 8549.940; 0.00692; 0.00058
1007.37;    3.200;  -12.460; 8518.340; 0.00814; 0.00069
1007.92;  -26.800;  -58.960; 8547.040; 0.01675; 0.00141
1008.47;    2.200;   -9.560; 8650.340; 0.00612; 0.00052
1009.02;    1.800;  -14.960; 8730.740; 0.00872; 0.00074
1009.57;   26.300;    5.940; 8770.540; 0.01049; 0.00088
1010.12;  -51.200;  -70.360; 8819.940; 0.00974; 0.00082
1010.67;    9.200;   -4.160; 8938.440; 0.00665; 0.00056
1011.22;   12.800;    5.640; 9023.540; 0.00349; 0.00029
1011.78;  -36.000;  -42.460; 9062.440; 0.00309; 0.00026
1012.33;  -50.000;  -45.560; 9068.940;-0.00209;-0.00018
1012.88;   37.700;   28.740; 9182.740; 0.00416; 0.00035
1013.43;    8.800;  -11.760; 9165.640; 0.00955; 0.00081
1013.98;   22.300;    6.840; 9256.140; 0.00718; 0.00061
1014.53;  -28.700;  -34.460; 9202.140; 0.00271; 0.00023
1015.08;  -32.600;  -44.660; 9159.840; 0.00574; 0.00049
1015.63;  -29.000;  -38.860; 9075.540; 0.00478; 0.00041
1016.18;  -34.000;  -49.160; 9064.740; 0.00747; 0.00063
1016.73;   27.000;    1.040; 8920.440; 0.01310; 0.00111
1017.28;   80.300;   59.040; 8837.240; 0.01093; 0.00093
1017.84;  -17.200;  -23.560; 8738.740; 0.00332; 0.00028
1018.39;  -11.000;  -27.260; 8609.540; 0.00868; 0.00074
1018.94;  -19.300;  -47.760; 8503.540; 0.01545; 0.00132
1019.49;   37.300;   14.140; 8362.940; 0.01288; 0.00110
1020.04;   54.600;   26.240; 8286.340; 0.01605; 0.00137
1020.59;  -13.800;  -34.360; 8098.540; 0.01187; 0.00101
1021.14;  -17.800;  -19.960; 8089.340; 0.00127; 0.00011
1021.69;  -22.300;  -47.960; 7874.640; 0.01533; 0.00131
1022.24;  -14.000;  -27.460; 7839.140; 0.00817; 0.00070
1022.79;   30.200;   11.940; 7670.040; 0.01126; 0.00096
1023.34;  -13.100;  -24.560; 7596.740; 0.00719; 0.00061
1023.89;   -7.600;  -12.960; 7513.240; 0.00343; 0.00029
1024.44;   -4.400;  -15.060; 7382.240; 0.00692; 0.00059
1024.99;   20.500;    0.040; 7310.940; 0.01351; 0.00116
1025.54;   53.200;   33.840; 7213.140; 0.01295; 0.00111
1026.09;  -19.500;  -34.860; 7156.540; 0.01043; 0.00089
1026.64;  -23.800;  -36.260; 7033.140; 0.00863; 0.00074
1027.19;   16.200;    6.240; 6951.540; 0.00703; 0.00060
1027.74;  -20.700;  -25.360; 6898.540; 0.00332; 0.00029
1028.29;  -21.300;  -39.360; 6785.340; 0.01317; 0.00113
1028.84;   70.000;   41.840; 6689.140; 0.02083; 0.00179
1029.39;   30.300;    3.440; 6693.440; 0.02004; 0.00172
1029.94;  -14.400;  -45.260; 6563.140; 0.02351; 0.00202
1030.48;  -23.600;  -47.960; 6489.840; 0.01874; 0.00161
1031.03;  -26.600;  -33.460; 6408.040; 0.00540; 0.00047
1031.58;   16.100;   -4.360; 6390.940; 0.01632; 0.00141
1032.13;  -39.800;  -46.760; 6251.740; 0.00565; 0.00049
1032.68;   -6.900;  -40.060; 6173.540; 0.02737; 0.00236
1033.23;  -22.500;  -40.760; 6056.340; 0.01523; 0.00132
1033.78;  -15.700;  -34.060; 5982.840; 0.01559; 0.00135
1034.33;    1.800;  -18.960; 5956.340; 0.01788; 0.00155
1034.88;   36.200;   24.240; 5884.440; 0.01044; 0.00090
1035.43;  -25.000;  -43.260; 5797.040; 0.01623; 0.00140
1035.98;    2.600;  -24.560; 5726.840; 0.02451; 0.00212
1036.52;   24.200;   -7.860; 5703.140; 0.02935; 0.00254
1037.07;   16.000;   12.340; 5634.340; 0.00341; 0.00030
1037.62;   23.600;   -7.260; 5538.840; 0.02912; 0.00253
1038.17;  113.500;   72.140; 5465.440; 0.03962; 0.00344
1038.72;   -7.700;  -21.960; 5419.540; 0.01389; 0.00121
1039.27;  -16.800;  -19.060; 5313.940; 0.00224; 0.00019
1039.82;   11.000;   -9.760; 5277.140; 0.02097; 0.00182
1040.37;  -38.900;  -47.360; 5173.340; 0.00866; 0.00075
1040.91;  -33.200;  -44.660; 5135.140; 0.01191; 0.00104
1041.46;  -19.000;  -29.060; 5014.240; 0.01066; 0.00093
1042.01;  -37.300;  -49.760; 4962.740; 0.01337; 0.00116
1042.56;  -23.200;  -31.860; 4871.240; 0.00948; 0.00083
1043.11;   -0.100;   -9.360; 4860.340; 0.01025; 0.00089
1043.66;   54.500;   24.240; 4779.540; 0.03410; 0.00297
1044.20;    7.000;    2.340; 4738.440; 0.00535; 0.00047
1044.75;   37.300;   14.740; 4683.040; 0.02633; 0.00230
1045.30;   59.000;   24.540; 4585.740; 0.04084; 0.00357
1045.85;   -0.500;  -25.760; 4510.240; 0.03041; 0.00266
1046.40;  -27.300;  -35.760; 4447.940; 0.01037; 0.00091
1046.94;  -25.100;  -26.260; 4426.440; 0.00145; 0.00013
1047.49;    5.700;  -23.660; 4272.140; 0.03725; 0.00326
1048.04;   75.600;   37.540; 4311.640; 0.04876; 0.00427
1048.59;  -19.200;  -42.360; 4233.240; 0.03031; 0.00266
1049.13;  128.200;   81.140; 4211.040; 0.06263; 0.00549
1049.68;  -30.600;  -49.960; 4059.940; 0.02638; 0.00231
1050.23;   16.700;   -0.060; 4062.640; 0.02306; 0.00202
1050.78;  -38.300;  -55.560; 3990.540; 0.02414; 0.00212
1051.32;  -32.200;  -29.060; 3946.840;-0.00446;-0.00039
1051.87;  233.900;  172.040; 3869.840; 0.08973; 0.00789
1052.42;  -13.000;  -12.460; 3825.340;-0.00080;-0.00007
1052.97;  205.400;  152.740; 3792.340; 0.07847; 0.00691
1053.51;   -9.600;  -20.360; 3734.840; 0.01633; 0.00144
1054.06;   41.600;   16.740; 3661.740; 0.03825; 0.00337
1054.61;   -2.400;    5.140; 3613.040;-0.01186;-0.00105
1055.16;  -24.300;  -44.160; 3555.440; 0.03153; 0.00278
1055.70;  -12.400;  -25.860; 3441.340; 0.02195; 0.00194
1056.25;  -23.600;  -59.060; 3388.740; 0.05889; 0.00520
1056.80;  -12.800;  -37.360; 3359.040; 0.04130; 0.00365
1057.34;  -27.100;  -46.760; 3323.340; 0.03359; 0.00297
1057.89;  -23.500;  -38.760; 3294.340; 0.02645; 0.00234
1058.44;   18.800;    3.040; 3243.440; 0.02773; 0.00245
1058.98;  -26.700;  -34.660; 3181.040; 0.01430; 0.00127
1059.53;   -2.000;  -18.360; 3089.840; 0.02989; 0.00265
1060.08;   -3.300;  -21.560; 3095.640; 0.03397; 0.00301
1060.62;  112.900;   80.440; 3037.940; 0.06111; 0.00542
1061.17;  -27.100;  -35.060; 2981.040; 0.01525; 0.00135
1061.72;   -7.400;  -17.560; 2925.640; 0.01985; 0.00176
1062.26;   23.700;    0.640; 2887.140; 0.04587; 0.00407
1062.81;   19.700;    2.640; 2868.640; 0.03466; 0.00308
1063.36;    4.800;   -3.960; 2810.640; 0.01805; 0.00160
1063.90;   19.600;    2.840; 2776.140; 0.03524; 0.00313
1064.45;   10.500;  -15.760; 2733.940; 0.05615; 0.00500
1064.99;    1.600;  -21.260; 2665.640; 0.04982; 0.00443
1065.54;    2.500;  -27.260; 2665.140; 0.06591; 0.00587
1066.09;   18.200;    1.540; 2624.740; 0.03757; 0.00335
1066.63;    8.000;   -4.460; 2613.240; 0.02847; 0.00254
1067.18;   73.500;   50.140; 2546.940; 0.05464; 0.00487
1067.72;   12.800;   -8.860; 2507.940; 0.05144; 0.00459
1068.27;   -5.200;  -31.060; 2435.040; 0.06219; 0.00555
1068.82;   51.100;   24.740; 2427.340; 0.06454; 0.00577
1069.36;   17.300;   -1.560; 2384.540; 0.04691; 0.00419
1069.91;  -14.700;  -27.160; 2395.540; 0.03131; 0.00280
1070.45;    2.200;   -9.660; 2355.540; 0.03037; 0.00272
1071.00;  -32.800;  -43.760; 2277.640; 0.02842; 0.00254
1071.54;    0.700;  -14.260; 2266.040; 0.03948; 0.00354
1072.09;   81.700;   61.540; 2286.540; 0.05408; 0.00485
1072.64;    8.400;   -2.360; 2225.240; 0.02940; 0.00264
1073.18;  115.700;   75.840; 2212.340; 0.10974; 0.00984
1073.73;  166.700;  126.340; 2142.340; 0.11313; 0.01015
1074.27;   -4.800;  -35.860; 2113.340; 0.08785; 0.00789
1074.82;   41.200;    9.440; 2108.140; 0.09140; 0.00821
1075.36;   30.600;    9.140; 2087.140; 0.06278; 0.00564
1075.91;   34.900;    4.140; 2074.740; 0.09122; 0.00820
1076.45;   14.400;   13.340; 2031.240; 0.00318; 0.00029
1077.00;   11.000;  -14.560; 1990.740; 0.07783; 0.00701
1077.54;   25.100;   19.840; 2002.540; 0.01628; 0.00147
1078.09;   44.900;   22.840; 1946.540; 0.06896; 0.00621
1078.63;   -5.800;  -33.660; 1925.340; 0.08836; 0.00797
1079.18;    6.000;  -25.660; 1902.340; 0.10212; 0.00921
1079.72;   37.800;    8.540; 1872.140; 0.09546; 0.00861
1080.27;   -3.000;  -28.260; 1833.740; 0.08377; 0.00756
1080.81;   -1.000;  -27.660; 1806.540; 0.08951; 0.00809
1081.36;  -30.300;  -49.360; 1759.940; 0.06510; 0.00588
1081.90;   71.100;   47.640; 1773.640; 0.08114; 0.00734
1082.44;   44.100;   23.340; 1742.540; 0.07309; 0.00661
1082.99;   36.100;   14.540; 1720.040; 0.07678; 0.00695
1083.53;    8.600;  -15.760; 1669.840; 0.08813; 0.00798
1084.08;   41.700;   12.140; 1694.940; 0.10831; 0.00981
1084.62;   28.800;   11.540; 1650.140; 0.06438; 0.00584
1085.17;   22.800;   -6.960; 1644.640; 0.11148; 0.01011
1085.71;    1.800;  -16.460; 1604.940; 0.06948; 0.00630
1086.25;   29.200;   13.040; 1614.040; 0.06255; 0.00568
1086.80;   34.300;   10.940; 1558.740; 0.09208; 0.00836
1087.34;   14.300;    0.740; 1549.140; 0.05397; 0.00490
1087.89;   -0.700;  -21.460; 1518.340; 0.08380; 0.00762
1088.43;   18.200;   12.440; 1515.840; 0.02355; 0.00214
1088.97;    6.400;    3.040; 1494.940; 0.01395; 0.00127
1089.52;  202.200;  167.440; 1492.140; 0.14640; 0.01333
1090.06;   94.700;   65.840; 1451.240; 0.12304; 0.01121
1090.61;   23.400;    6.040; 1435.740; 0.07545; 0.00688
1091.15;  180.100;  140.040; 1394.140; 0.17691; 0.01613
1091.69;   35.300;   17.840; 1365.740; 0.07824; 0.00714
1092.24;   18.000;    9.140; 1368.940; 0.04030; 0.00368
1092.78;   59.400;   28.540; 1337.940; 0.14310; 0.01307
1093.32;   31.300;   11.840; 1350.740; 0.09016; 0.00824
1093.87;   42.500;   16.840; 1327.440; 0.12175; 0.01113
1094.41;    6.700;  -11.260; 1272.140; 0.08632; 0.00790
1094.95;  150.000;  110.440; 1282.440; 0.19219; 0.01759
1095.50;   -7.500;  -27.860; 1250.140; 0.10117; 0.00926
1096.04;   48.000;   45.340; 1268.140; 0.01331; 0.00122
1096.58;  161.100;  134.540; 1217.440; 0.13491; 0.01236
1097.13;  -19.200;  -25.860; 1182.740; 0.03423; 0.00314
1097.67;   87.300;   49.940; 1204.340; 0.19545; 0.01793
1098.21;   -7.600;  -16.960; 1162.040; 0.04957; 0.00455
1098.76;   -5.300;   -2.160; 1142.840;-0.01687;-0.00155
1099.30;   14.900;  -14.060; 1130.140; 0.15719; 0.01444
1099.84;    7.700;  -25.760; 1116.240; 0.18469; 0.01698
1100.38;   41.500;   25.840; 1094.240; 0.08753; 0.00805

