
Integration time [ms]: 500.000
Averaging Nr. [scans]: 10
Smoothing Nr. [pixels]: 0
Data measured with spectrometer [name]: 1901096U1
Wave   ;Sample   ;Dark     ;Reference;Absolute Irradiance  ;Photon Counts
[nm]   ;[counts] ;[counts] ;[counts] ;[µWatt/cm?/nm]       ;[µMol/s/m?/nm]

 155.82;  210.718;  220.336;   69.357; 0.00000; 0.00000
 156.42;  246.331;  239.240;   98.706; 0.00000; 0.00000
 157.03;  228.132;  223.041;   92.018; 0.00000; 0.00000
 157.63;  212.829;  212.140;   78.786; 0.00000; 0.00000
 158.23;  233.228;  215.440;   94.680; 0.00000; 0.00000
 158.84;  228.837;  233.042;  119.574; 0.00000; 0.00000
 159.44;  222.726;  229.939;   82.550; 0.00000; 0.00000
 160.04;  245.122;  233.638;  102.110; 0.00000; 0.00000
 160.64;  295.525;  291.439;   93.044; 0.00000; 0.00000
 161.25;  251.532;  242.041;  112.923; 0.00000; 0.00000
 161.85;  270.228;  250.139;  109.378; 0.00000; 0.00000
 162.45;  228.822;  214.738;   90.607; 0.00000; 0.00000
 163.06;  272.425;  268.439;   94.943; 0.00000; 0.00000
 163.66;  267.834;  254.041;   96.745; 0.00000; 0.00000
 164.26;  220.314;  228.235;   70.019; 0.00000; 0.00000
 164.86;  244.817;  223.836;  112.245; 0.00000; 0.00000
 165.47;  243.913;  222.006;  144.771; 0.00000; 0.00000
 166.07;  230.408;  227.405;  171.417; 0.00000; 0.00000
 166.67;  237.006;  221.004;  157.886; 0.00000; 0.00000
 167.27;  262.511;  227.505;  165.443; 0.00000; 0.00000
 167.88;  260.206;  243.204;  176.084; 0.00000; 0.00000
 168.48;  305.900;  270.602;  149.416; 0.00000; 0.00000
 169.08;  262.004;  255.003;  149.165; 0.00000; 0.00000
 169.68;  268.018;  266.507;  196.226; 0.00000; 0.00000
 170.29;  283.899;  279.502;  174.114; 0.00000; 0.00000
 170.89;  262.905;  246.104;  182.177; 0.00000; 0.00000
 171.49;  272.504;  267.103;  158.870; 0.00000; 0.00000
 172.09;  258.306;  243.304;  197.793; 0.00000; 0.00000
 172.70;  268.894;  241.700;  178.950; 0.00000; 0.00000
 173.30;  328.499;  312.302;  192.313; 0.00000; 0.00000
 173.90;  234.288;  227.899;  149.290; 0.00000; 0.00000
 174.50;  385.394;  342.200;  169.250; 0.00000; 0.00000
 175.11;  306.898;  290.801;  178.397; 0.00000; 0.00000
 175.71;  220.109;  202.005;  163.326; 0.00000; 0.00000
 176.31;  218.108;  201.904;  157.407; 0.00000; 0.00000
 176.91;  250.796;  218.401;  166.476; 0.00000; 0.00000
 177.51;  244.693;  227.000;  169.037; 0.00000; 0.00000
 178.12;  308.196;  302.301;  189.172; 0.00000; 0.00000
 178.72;  285.603;  269.103;  188.859; 0.00000; 0.00000
 179.32;  286.597;  283.101;  182.185; 0.00000; 0.00000
 179.92;  236.896;  227.101;  182.480; 0.00000; 0.00000
 180.52;  375.209;  333.605;  194.824; 0.00000; 0.00000
 181.13;  274.189;  252.699;  169.191; 0.00000; 0.00000
 181.73;  234.100;  213.902;  204.825; 0.00000; 0.00000
 182.33;  257.689;  243.799;  191.492; 0.00000; 0.00000
 182.93;  240.791;  233.800;  210.121; 0.00000; 0.00000
 183.54;  198.382;  182.997;  146.515; 0.00000; 0.00000
 184.14;  231.301;  204.202;  159.832; 0.00000; 0.00000
 184.74;  305.101;  274.302;  211.228; 0.00000; 0.00000
 185.34;  245.410;  224.105;  232.734; 0.08710; 0.00135
 185.94;  269.190;  259.299;  205.003; 0.04894; 0.00076
 186.54;  245.202;  238.903;  234.146; 0.02825; 0.00044
 187.15;  214.796;  203.901;  218.473; 0.05250; 0.00082
 187.75;  339.113;  294.206;  238.667; 0.13543; 0.00213
 188.35;  305.190;  278.399;  236.604; 0.10536; 0.00166
 188.95;  209.806;  208.004;  223.885; 0.00590; 0.00009
 189.55;  196.892;  171.400;  204.335; 0.09691; 0.00154
 190.16;  277.694;  253.900;  250.453; 0.09192; 0.00146
 190.76;  209.387;  196.298;  231.976; 0.04652; 0.00074
 191.36;  258.290;  260.299;  258.608;-0.00693;-0.00011
 191.96;  235.601;  216.002;  282.334; 0.05285; 0.00085
 192.56;  228.491;  216.599;  277.413; 0.03377; 0.00054
 193.16;  246.087;  222.298;  299.568; 0.07329; 0.00118
 193.77;  290.378;  280.796;  305.671; 0.03480; 0.00056
 194.37;  225.797;  198.501;  293.691; 0.07183; 0.00117
 194.97;  202.391;  197.299;  303.214; 0.01306; 0.00021
 195.57;  213.306;  200.904;  323.385; 0.02329; 0.00038
 196.17;  262.977;  239.195;  329.855; 0.08731; 0.00143
 196.77;  218.092;  201.800;  362.624; 0.03983; 0.00065
 197.38;  220.590;  209.299;  385.309; 0.02644; 0.00044
 197.98;  296.483;  255.797;  391.422; 0.10989; 0.00182
 198.58;  237.801;  235.002;  441.930; 0.00569; 0.00009
 199.18;  200.298;  185.202;  429.902; 0.03035; 0.00051
 199.78;  329.078;  269.496;  456.870; 0.20502; 0.00342
 200.38;  244.193;  239.300;  499.846; 0.01028; 0.00017
 200.98;  187.297;  178.001;  502.986; 0.01637; 0.00028
 201.59;  248.220;  215.408;  611.653; 0.04188; 0.00071
 202.19;  218.211;  224.805;  605.646;-0.00953;-0.00016
 202.79;  215.594;  197.500;  587.448; 0.03524; 0.00060
 203.39;  192.897;  161.601;  644.186; 0.05881; 0.00100
 203.99;  234.602;  222.003;  740.949; 0.01925; 0.00033
 204.59;  229.999;  222.002;  733.510; 0.01334; 0.00023
 205.19;  230.889;  216.999;  796.291; 0.03168; 0.00054
 205.79;  224.100;  207.602;  825.824; 0.02725; 0.00047
 206.40;  207.198;  198.301;  875.395; 0.01510; 0.00026
 207.00;  250.402;  228.303;  907.041; 0.03481; 0.00060
 207.60;  211.298;  190.601;  928.798; 0.03400; 0.00059
 208.20;  212.112;  203.105; 1019.353; 0.01144; 0.00020
 208.80;  211.313;  193.206; 1029.973; 0.02267; 0.00040
 209.40;  227.423;  199.209; 1141.880; 0.02977; 0.00052
 210.00;  213.700;  202.402; 1124.417; 0.01607; 0.00028
 210.60;  223.105;  201.703; 1170.175; 0.02744; 0.00048
 211.20;  288.303;  273.303; 1254.557; 0.01934; 0.00034
 211.81;  170.103;  153.303; 1237.652; 0.02144; 0.00038
 212.41;  201.317;  190.407; 1355.714; 0.01066; 0.00019
 213.01;  200.626;  189.210; 1400.416; 0.00939; 0.00017
 213.61;  187.609;  172.005; 1399.523; 0.01597; 0.00029
 214.21;  180.414;  181.706; 1517.477;-0.00119;-0.00002
 214.81;  204.319;  185.208; 1599.136; 0.01567; 0.00028
 215.41;  228.813;  224.406; 1677.966; 0.00417; 0.00008
 216.01;  254.512;  255.406; 1747.260;-0.00079;-0.00001
 216.61;  239.690;  220.499; 1794.906; 0.02602; 0.00047
 217.21;  229.623;  218.909; 1900.484; 0.00736; 0.00013
 217.81;  184.428;  167.410; 1966.536; 0.00997; 0.00018
 218.41;  204.021;  187.108; 2070.058; 0.01128; 0.00021
 219.02;  184.929;  188.510; 2134.247;-0.00198;-0.00004
 219.62;  224.215;  209.407; 2229.697; 0.00980; 0.00018
 220.22;  228.316;  200.407; 2296.000; 0.01713; 0.00032
 220.82;  183.224;  178.909; 2396.090; 0.00222; 0.00004
 221.42;  218.326;  197.310; 2534.516; 0.00991; 0.00018
 222.02;  176.322;  170.809; 2602.876; 0.00261; 0.00005
 222.62;  160.522;  160.508; 2644.667; 0.00001; 0.00000
 223.22;  194.021;  179.408; 2747.058; 0.00752; 0.00014
 223.82;  189.421;  180.408; 2851.961; 0.00432; 0.00008
 224.42;  220.119;  216.608; 2979.536; 0.00156; 0.00003
 225.02;  194.421;  189.208; 3070.857; 0.00213; 0.00004
 225.62;  189.034;  170.212; 3154.212; 0.00613; 0.00012
 226.22;  211.726;  190.210; 3251.918; 0.00804; 0.00015
 226.82;  222.323;  178.409; 3374.683; 0.01806; 0.00034
 227.42;  197.909;  191.205; 3459.925; 0.00342; 0.00006
 228.02;  213.311;  208.305; 3557.146; 0.00224; 0.00004
 228.62;  168.627;  137.910; 3720.333; 0.01102; 0.00021
 229.22;  266.730;  235.611; 3822.360; 0.00975; 0.00019
 229.82;  185.799;  177.202; 3910.707; 0.00498; 0.00010
 230.43;  205.824;  202.209; 4060.498; 0.00119; 0.00002
 231.03;  200.112;  170.305; 4165.853; 0.01179; 0.00023
 231.63;  185.110;  166.305; 4299.932; 0.00738; 0.00014
 232.23;  188.915;  184.506; 4439.690; 0.00158; 0.00003
 232.83;  192.017;  186.107; 4570.914; 0.00193; 0.00004
 233.43;  214.519;  198.208; 4679.232; 0.00510; 0.00010
 234.03;  199.319;  174.508; 4822.739; 0.00709; 0.00014
 234.63;  158.727;  146.210; 4963.625; 0.00311; 0.00006
 235.23;  207.225;  189.309; 5087.302; 0.00445; 0.00009
 235.83;  179.714;  175.706; 5158.578; 0.00120; 0.00002
 236.43;  213.304;  189.403; 5238.061; 0.00821; 0.00016
 237.03;  187.113;  175.506; 5367.267; 0.00335; 0.00007
 237.63;  299.016;  255.007; 5476.106; 0.01117; 0.00022
 238.23;  181.025;  178.109; 5557.100; 0.00064; 0.00001
 238.83;  181.225;  163.509; 5587.205; 0.00397; 0.00008
 239.43;  200.810;  173.305; 5669.235; 0.00770; 0.00015
 240.03;  217.523;  188.909; 5684.486; 0.00661; 0.00013
 240.63;  177.334;  169.912; 5805.009; 0.00135; 0.00003
 241.23;  245.416;  210.407; 5803.599; 0.00846; 0.00017
 241.83;  183.923;  170.609; 5757.283; 0.00292; 0.00006
 242.43;  192.018;  188.907; 5830.420; 0.00077; 0.00002
 243.03;  182.724;  175.209; 5665.396; 0.00149; 0.00003
 243.63;  179.219;  161.208; 5769.037; 0.00370; 0.00008
 244.23;  171.009;  154.805; 5796.819; 0.00466; 0.00010
 244.83;  168.121;  150.808; 5806.754; 0.00369; 0.00008
 245.43;  196.908;  189.204; 5823.208; 0.00195; 0.00004
 246.02;  372.115;  345.506; 5800.188; 0.00594; 0.00012
 246.62;  187.809;  176.605; 5811.522; 0.00305; 0.00006
 247.22;  173.827;  152.710; 5818.533; 0.00385; 0.00008
 247.82;  216.325;  205.209; 5941.708; 0.00199; 0.00004
 248.42;  290.718;  264.607; 5924.620; 0.00533; 0.00011
 249.02;  217.421;  199.908; 5931.763; 0.00334; 0.00007
 249.62;  181.430;  169.111; 5978.860; 0.00204; 0.00004
 250.22;  254.327;  228.510; 6035.626; 0.00445; 0.00009
 250.82;  215.319;  196.608; 6063.934; 0.00369; 0.00008
 251.42;  202.732;  197.211; 6166.982; 0.00084; 0.00002
 252.02;  153.519;  148.708; 6146.432; 0.00089; 0.00002
 252.62;  174.038;  173.413; 6316.257; 0.00008; 0.00000
 253.22;  238.916;  225.507; 6362.600; 0.00250; 0.00005
 253.82;  166.728;  144.310; 6451.444; 0.00381; 0.00008
 254.42;  173.223;  168.609; 6595.581; 0.00082; 0.00002
 255.02;  208.230;  184.211; 6709.758; 0.00323; 0.00007
 255.62;  164.328;  144.710; 6866.335; 0.00283; 0.00006
 256.22;  303.316;  273.107; 6997.500; 0.00552; 0.00012
 256.82;  167.714;  163.506; 7151.784; 0.00071; 0.00002
 257.41;  163.030;  158.811; 7263.866; 0.00055; 0.00001
 258.01;  173.821;  153.908; 7368.656; 0.00295; 0.00006
 258.61;  228.728;  207.910; 7537.434; 0.00262; 0.00006
 259.21;  165.517;  158.207; 7585.914; 0.00109; 0.00002
 259.81;  228.516;  197.507; 7627.906; 0.00469; 0.00010
 260.41;  316.717;  275.007; 7729.113; 0.00598; 0.00013
 261.01;  135.034;  136.212; 7804.604;-0.00013; 0.00000
 261.61;  186.332;  159.711; 7874.186; 0.00275; 0.00006
 262.21;  165.413;  159.106; 7809.864; 0.00089; 0.00002
 262.81;  147.115;  140.007; 7883.093; 0.00093; 0.00002
 263.41;  168.830;  151.011; 7851.264; 0.00188; 0.00004
 264.00;  410.333;  360.812; 7910.396; 0.00467; 0.00010
 264.60;  196.928;  178.010; 7832.833; 0.00193; 0.00004
 265.20;  162.225;  141.709; 7811.800; 0.00224; 0.00005
 265.80;  175.524;  170.309; 7807.390; 0.00053; 0.00001
 266.40;  187.415;  171.206; 7758.985; 0.00203; 0.00005
 267.00;  240.823;  211.909; 7744.586; 0.00303; 0.00007
 267.60;  206.028;  181.510; 7713.844; 0.00219; 0.00005
 268.20;  216.128;  192.610; 7658.534; 0.00193; 0.00004
 268.80;  142.227;  134.910; 7613.828; 0.00060; 0.00001
 269.39;  217.706;  199.004; 7639.694; 0.00217; 0.00005
 269.99;  163.920;  151.208; 7545.848; 0.00107; 0.00002
 270.59;  181.523;  168.409; 7557.185; 0.00106; 0.00002
 271.19;  157.720;  153.308; 7463.747; 0.00033; 0.00001
 271.79;  189.417;  175.907; 7430.716; 0.00099; 0.00002
 272.39;  171.517;  163.307; 7390.417; 0.00054; 0.00001
 272.99;  162.707;  150.304; 7366.798; 0.00093; 0.00002
 273.59;  170.604;  146.003; 7394.867; 0.00174; 0.00004
 274.18;  196.109;  171.305; 7372.027; 0.00149; 0.00003
 274.78;  175.602;  165.703; 7463.749; 0.00060; 0.00001
 275.38;  415.686;  361.998; 7541.064; 0.00374; 0.00009
 275.98;  161.476;  158.695; 7555.049; 0.00019; 0.00000
 276.58;  179.069;  172.593; 7679.967; 0.00043; 0.00001
 277.18;  171.679;  140.996; 7761.887; 0.00148; 0.00003
 277.78;  187.163;  168.891; 7885.197; 0.00098; 0.00002
 278.37;  144.747;  144.387; 8094.415; 0.00002; 0.00000
 278.97;  184.157;  161.590; 8236.837; 0.00088; 0.00002
 279.57;  184.637;  162.284; 8401.201; 0.00092; 0.00002
 280.17;  157.134;  139.283; 8585.075; 0.00067; 0.00002
 280.77;  198.427;  170.081; 8739.990; 0.00106; 0.00002
 281.37;  196.225;  178.680; 8921.174; 0.00062; 0.00001
 281.96;  198.298;  174.472; 9108.466; 0.00096; 0.00002
 282.56;  196.408;  173.175; 9270.274; 0.00079; 0.00002
 283.16;  206.493;  179.071; 9355.810; 0.00103; 0.00002
 283.76;  158.593;  139.371; 9505.805; 0.00063; 0.00002
 284.36;  318.881;  274.567; 9628.166; 0.00160; 0.00004
 284.95;  184.558;  159.561; 9802.511; 0.00110; 0.00003
 285.55;  191.871;  171.965; 9973.057; 0.00074; 0.00002
 286.15;  189.681;  174.867;10153.664; 0.00049; 0.00001
 286.75;  227.255;  205.160;10252.877; 0.00093; 0.00002
 287.35;  161.662;  142.062;10345.749; 0.00078; 0.00002
 287.94;  139.770;  117.664;10437.340; 0.00084; 0.00002
 288.54;  172.767;  144.863;10563.308; 0.00111; 0.00003
 289.14;  147.466;  139.663;10625.296; 0.00033; 0.00001
 289.74;  166.770;  148.364;10698.339; 0.00081; 0.00002
 290.34;  168.892;  159.671;10794.693; 0.00032; 0.00001
 290.93;  169.584;  143.468;10889.406; 0.00105; 0.00003
 291.53;  164.590;  151.470;10882.075; 0.00051; 0.00001
 292.13;  153.586;  135.669;10986.727; 0.00075; 0.00002
 292.73;  206.575;  170.066;10956.902; 0.00181; 0.00004
 293.33;  163.694;  120.771;10919.612; 0.00183; 0.00004
 293.92;  146.799;  140.573;10969.773; 0.00026; 0.00001
 294.52;  142.504;  127.074;10992.032; 0.00063; 0.00002
 295.12;  162.699;  145.273;10934.672; 0.00078; 0.00002
 295.72;  162.097;  125.172;10815.554; 0.00175; 0.00004
 296.31;  221.412;  188.876;10904.618; 0.00138; 0.00003
 296.91;  233.592;  192.771;10752.392; 0.00219; 0.00005
 297.51;  193.407;  161.875;10565.563; 0.00142; 0.00004
 298.11;  394.208;  338.175;10514.872; 0.00237; 0.00006
 298.70;  160.597;  142.872;10425.745; 0.00080; 0.00002
 299.30;  140.461;  120.561;10340.539; 0.00116; 0.00003
 299.90;  179.748;  166.258;10399.297; 0.00075; 0.00002
 300.50;  217.469;  191.364;10320.936; 0.00132; 0.00003
 301.09;  129.368;  125.663;10404.916; 0.00023; 0.00001
 301.69;  174.582;  145.168;10530.383; 0.00154; 0.00004
 302.29;  170.470;  130.664;10625.238; 0.00255; 0.00006
 302.89;  160.475;  132.366;10712.996; 0.00179; 0.00005
 303.48;  205.564;  196.462;10883.577; 0.00072; 0.00002
 304.08;  158.192;  143.871;11034.496; 0.00110; 0.00003
 304.68;  175.078;  148.966;11199.933; 0.00247; 0.00006
 305.28;  150.178;  157.467;11331.138;-0.00073;-0.00002
 305.87;  137.894;  121.071;11557.216; 0.00148; 0.00004
 306.47;  149.184;  118.968;11629.007; 0.00294; 0.00008
 307.07;  182.897;  157.372;11817.946; 0.00224; 0.00006
 307.67;  185.409;  156.475;12043.183; 0.00236; 0.00006
 308.26;  150.098;  143.772;12135.263; 0.00057; 0.00001
 308.86;  184.772;  167.665;12308.970; 0.00184; 0.00005
 309.46;  158.198;  137.072;12516.957; 0.00187; 0.00005
 310.05;  159.181;  141.167;12737.271; 0.00188; 0.00005
 310.65;  183.016;  158.578;12857.363; 0.00204; 0.00005
 311.25;  184.292;  160.371;12935.298; 0.00226; 0.00006
 311.85;  191.083;  156.568;13145.596; 0.00356; 0.00009
 312.44;  164.185;  149.168;13347.612; 0.00149; 0.00004
 313.04;  161.293;  136.371;13485.708; 0.00235; 0.00006
 313.64;  169.782;  149.968;13620.981; 0.00212; 0.00006
 314.23;  189.190;  160.970;13715.076; 0.00274; 0.00007
 314.83;  436.286;  384.969;13936.025; 0.00537; 0.00014
 315.43;  170.074;  127.165;13967.090; 0.00479; 0.00013
 316.02;  197.604;  176.974;14040.930; 0.00186; 0.00005
 316.62;  172.889;  147.370;14125.363; 0.00252; 0.00007
 317.22;  186.195;  160.472;14245.032; 0.00242; 0.00006
 317.81;  143.698;  137.272;14233.762; 0.00061; 0.00002
 318.41;  173.101;  144.273;14263.897; 0.00269; 0.00007
 319.01;  158.784;  140.268;14427.401; 0.00189; 0.00005
 319.60;  205.388;  175.869;14388.747; 0.00287; 0.00008
 320.20;  137.392;  124.570;14258.389; 0.00127; 0.00003
 320.80;  162.987;  149.269;14334.539; 0.00141; 0.00004
 321.39;  168.988;  149.269;14417.251; 0.00201; 0.00005
 321.99;  161.586;  145.369;14396.221; 0.00170; 0.00005
 322.59;  218.898;  198.472;14327.565; 0.00197; 0.00005
 323.18;  169.596;  138.872;14288.034; 0.00308; 0.00008
 323.78;  180.503;  156.574;14312.623; 0.00221; 0.00006
 324.38;  162.389;  136.770;14236.162; 0.00261; 0.00007
 324.97;  156.401;  131.673;14253.394; 0.00236; 0.00006
 325.57;  184.289;  153.870;14167.559; 0.00312; 0.00008
 326.17;  200.306;  164.075;14160.352; 0.00336; 0.00009
 326.76;  181.593;  151.871;14123.806; 0.00298; 0.00008
 327.36;  203.098;  170.672;14073.860; 0.00301; 0.00008
 327.95;  154.303;  126.274;13930.123; 0.00244; 0.00007
 328.55;  148.003;  132.874;13852.519; 0.00130; 0.00004
 329.15;  380.284;  326.868;13731.407; 0.00501; 0.00014
 329.74;  148.716;  131.678;13598.370; 0.00135; 0.00004
 330.34;  163.009;  151.176;13577.890; 0.00091; 0.00003
 330.94;  195.779;  163.167;13380.550; 0.00289; 0.00008
 331.53;  144.885;  144.968;13220.110;-0.00001; 0.00000
 332.13;  150.304;  114.274;13089.027; 0.00301; 0.00008
 332.72;  291.003;  237.274;12940.220; 0.00470; 0.00013
 333.32;  151.612;  140.176;12869.816; 0.00101; 0.00003
 333.92;  136.717;  123.678;12706.579; 0.00108; 0.00003
 334.51;  144.514;  121.477;12609.342; 0.00200; 0.00006
 335.11;  176.110;  147.876;12467.899; 0.00249; 0.00007
 335.70;  153.622;  132.879;12368.236; 0.00166; 0.00005
 336.30;  205.143;  174.086;12332.478; 0.00225; 0.00006
 336.90;  195.226;  153.880;12252.377; 0.00316; 0.00009
 337.49;  151.024;  121.780;12294.456; 0.00216; 0.00006
 338.09;  189.725;  150.080;12364.864; 0.00287; 0.00008
 338.68;  207.945;  159.586;12237.490; 0.00313; 0.00009
 339.28;  175.442;  133.585;12302.356; 0.00272; 0.00008
 339.88;  199.149;  153.887;12390.342; 0.00288; 0.00008
 340.47;  216.145;  177.686;12416.990; 0.00248; 0.00007
 341.07;  206.744;  169.486;12531.981; 0.00236; 0.00007
 341.66;  149.950;  109.888;12623.655; 0.00244; 0.00007
 342.26;  197.941;  132.885;12797.052; 0.00405; 0.00012
 342.85;  224.346;  148.086;12937.109; 0.00440; 0.00013
 343.45;  202.564;  127.392;12984.911; 0.00402; 0.00012
 344.05;  256.831;  157.382;13082.432; 0.00539; 0.00016
 344.64;  245.287;  156.969;13194.041; 0.00449; 0.00013
 345.24;  223.506;  119.945;13265.813; 0.00513; 0.00015
 345.83;  295.553;  163.730;13312.418; 0.00657; 0.00019
 346.43;  272.093;  115.042;13468.470; 0.00664; 0.00019
 347.02;  374.402;  183.844;13572.576; 0.00784; 0.00023
 347.62;  296.919;   84.249;13379.367; 0.00843; 0.00024
 348.21;  406.507;  151.546;13533.522; 0.01017; 0.00030
 348.81;  450.708;  181.646;13381.845; 0.01037; 0.00030
 349.41;  484.424;  148.051;13369.417; 0.01276; 0.00037
 350.00;  543.918;  126.049;13470.448; 0.01643; 0.00048
 350.60;  586.014;  126.948;13588.306; 0.01806; 0.00053
 351.19;  710.811;  152.847;13759.078; 0.02137; 0.00063
 351.79;  791.520;  173.150;13840.276; 0.02181; 0.00064
 352.38;  848.424;  111.051;13938.916; 0.02483; 0.00073
 352.98;  980.790;  141.641;13979.839; 0.02901; 0.00086
 353.57; 1113.168;  135.134;14008.884; 0.03256; 0.00096
 354.17; 1183.674;  100.336;14067.448; 0.03397; 0.00101
 354.76; 1380.150;  155.229;14095.882; 0.03738; 0.00111
 355.36; 1449.122;  135.021;14156.360; 0.03947; 0.00117
 355.95; 1535.484;   93.010;14214.335; 0.04211; 0.00125
 356.55; 1647.452;  103.101;14229.371; 0.04403; 0.00131
 357.14; 1775.317;  121.490;14325.365; 0.04507; 0.00135
 357.74; 1845.589;  132.882;14177.550; 0.04578; 0.00137
 358.33; 1890.642;  137.768;14059.315; 0.04633; 0.00139
 358.93; 1914.586;  136.352;13923.782; 0.04743; 0.00142
 359.52; 1905.556;  114.643;13798.344; 0.04578; 0.00138
 360.12; 1950.715;  116.631;13719.972; 0.04678; 0.00141
 360.71; 1915.113;  136.431;13707.554; 0.04425; 0.00133
 361.31; 1955.997;  157.026;13621.268; 0.04395; 0.00133
 361.90; 2086.277;  322.920;13507.738; 0.04356; 0.00132
 362.50; 1847.055;  143.914;13484.098; 0.04312; 0.00131
 363.09; 1776.563;  124.816;13341.582; 0.04218; 0.00128
 363.69; 1759.493;  123.025;13261.120; 0.04272; 0.00130
 364.28; 1759.633;  131.937;13269.773; 0.04325; 0.00132
 364.88; 1818.649;  189.041;13351.165; 0.04527; 0.00138
 365.47; 1779.086;  148.852;13342.885; 0.04420; 0.00135
 366.06; 1695.318;  123.162;13257.149; 0.04333; 0.00133
 366.66; 1737.833;  131.966;13117.317; 0.04515; 0.00138
 367.25; 1748.240;  149.468;13006.099; 0.04495; 0.00138
 367.85; 1742.559;  118.174;12998.112; 0.04432; 0.00136
 368.44; 1830.733;  195.066;12809.111; 0.04486; 0.00138
 369.04; 1738.606;  138.258;12658.104; 0.04424; 0.00136
 369.63; 1719.490;  155.053;12538.629; 0.04278; 0.00132
 370.23; 1693.972;  130.248;12507.819; 0.04325; 0.00134
 370.82; 1647.245;  127.040;12275.616; 0.04364; 0.00135
 371.41; 1581.760;  118.644;12167.683; 0.04216; 0.00131
 372.01; 1549.653;  140.643;12115.712; 0.04144; 0.00129
 372.60; 1480.566;  117.146;11975.456; 0.04120; 0.00128
 373.20; 1464.893;  174.654;12039.964; 0.03812; 0.00119
 373.79; 1349.318;  147.261;11941.740; 0.03466; 0.00108
 374.39; 1258.007;  135.358;11902.018; 0.03280; 0.00103
 374.98; 1168.506;  140.058;11792.806; 0.03012; 0.00094
 375.57; 1113.297;  132.655;11721.304; 0.02938; 0.00092
 376.17; 1060.484;  148.552;11796.660; 0.02753; 0.00087
 376.76;  997.297;  126.855;11721.704; 0.02637; 0.00083
 377.36;  886.399;  108.556;11727.335; 0.02362; 0.00074
 377.95;  852.306;  123.558;11721.412; 0.02182; 0.00069
 378.55;  781.206;  127.358;11711.712; 0.01972; 0.00062
 379.14;  731.925;  124.964;11709.428; 0.01813; 0.00057
 379.73;  659.184;  107.651;11636.354; 0.01710; 0.00054
 380.33;  663.598;  127.356;11703.912; 0.01631; 0.00052
 380.92;  625.691;  140.554;11668.144; 0.01492; 0.00047
 381.51;  598.011;  150.860;11686.070; 0.01355; 0.00043
 382.11;  513.109;  107.159;11643.046; 0.01235; 0.00039
 382.70;  517.293;  150.654;11603.363; 0.01133; 0.00036
 383.30;  472.801;  131.356;11590.348; 0.01045; 0.00033
 383.89;  480.790;  148.153;11709.427; 0.01017; 0.00033
 384.48;  426.587;  116.153;11665.995; 0.00950; 0.00031
 385.08;  433.392;  135.354;11854.352; 0.00908; 0.00029
 385.67;  371.799;  111.656;11824.527; 0.00775; 0.00025
 386.27;  366.400;  119.756;11982.236; 0.00734; 0.00024
 386.86;  370.087;  118.553;12038.498; 0.00754; 0.00024
 387.45;  337.297;  105.955;12123.205; 0.00682; 0.00022
 388.05;  378.704;  157.557;12277.087; 0.00640; 0.00021
 388.64;  378.909;  161.559;12483.044; 0.00627; 0.00020
 389.23;  306.804;  148.357;12506.880; 0.00453; 0.00015
 389.83;  272.692;  119.954;12733.854; 0.00436; 0.00014
 390.42;  317.995;  151.455;13005.489; 0.00466; 0.00015
 391.01;  263.318;  118.762;13122.046; 0.00397; 0.00013
 391.61;  256.994;  112.254;13136.770; 0.00400; 0.00013
 392.20;  251.392;  129.354;13389.848; 0.00334; 0.00011
 392.79;  257.598;  110.456;13482.314; 0.00396; 0.00013
 393.39;  305.691;  176.754;13714.141; 0.00344; 0.00011
 393.98;  204.903;   96.957;13887.473; 0.00284; 0.00009
 394.57;  278.277;  144.349;14119.877; 0.00353; 0.00012
 395.17;  287.007;  181.358;14342.017; 0.00271; 0.00009
 395.76;  267.085;  157.252;14398.170; 0.00284; 0.00009
 396.35;  234.302;  121.657;14723.368; 0.00284; 0.00009
 396.95;  242.400;  153.556;14851.736; 0.00223; 0.00007
 397.54;  240.002;  129.257;15011.260; 0.00273; 0.00009
 398.13;  320.908;  210.558;15237.327; 0.00270; 0.00009
 398.73;  228.905;  137.058;15364.602; 0.00221; 0.00007
 399.32;  218.685;  116.952;15491.473; 0.00245; 0.00008
 399.91;  204.201;  120.357;15600.753; 0.00199; 0.00007
 400.50;  215.595;  142.255;15697.381; 0.00173; 0.00006
 401.10;  238.810;  151.159;15828.054; 0.00204; 0.00007
 401.69;  205.502;  127.157;15854.460; 0.00182; 0.00006
 402.28;  203.803;  132.357;15897.175; 0.00164; 0.00006
 402.88;  214.903;  140.157;15970.475; 0.00171; 0.00006
 403.47;  213.604;  117.857;16008.786; 0.00218; 0.00007
 404.06;  238.001;  152.956;16056.750; 0.00193; 0.00007
 404.66;  210.803;  146.857;16006.671; 0.00145; 0.00005
 405.25;  220.888;  155.853;16161.003; 0.00147; 0.00005
 405.84;  192.414;  134.860;16197.799; 0.00129; 0.00004
 406.43;  183.006;  110.258;16343.805; 0.00162; 0.00006
 407.03;  233.209;  159.759;16413.145; 0.00163; 0.00006
 407.62;  191.378;  114.250;16282.092; 0.00173; 0.00006
 408.21;  278.005;  202.758;16281.894; 0.00168; 0.00006
 408.80;  178.495;  111.055;16313.383; 0.00150; 0.00005
 409.40;  174.911;  111.459;16243.061; 0.00140; 0.00005
 409.99;  216.103;  148.957;16360.174; 0.00149; 0.00005
 410.58;  169.619;   97.362;16266.062; 0.00159; 0.00005
 411.17;  189.116;  109.861;16281.023; 0.00175; 0.00006
 411.77;  204.400;  151.656;16300.337; 0.00117; 0.00004
 412.36;  175.407;  108.458;16211.225; 0.00150; 0.00005
 412.95;  182.619;  117.362;16312.261; 0.00144; 0.00005
 413.54;  187.624;  127.563;16200.710; 0.00133; 0.00005
 414.14;  208.021;  135.163;16218.084; 0.00162; 0.00006
 414.73;  129.011;   94.360;15995.170; 0.00078; 0.00003
 415.32;  172.520;  111.262;16069.668; 0.00138; 0.00005
 415.91;  163.034;  109.366;15987.828; 0.00121; 0.00004
 416.50;  164.428;   95.064;15943.356; 0.00157; 0.00005
 417.10;  176.918;  111.162;15912.947; 0.00150; 0.00005
 417.69;  256.825;  183.263;15903.020; 0.00169; 0.00006
 418.28;  202.625;  141.563;15902.022; 0.00141; 0.00005
 418.87;  197.333;  148.466;15922.014; 0.00113; 0.00004
 419.47;  196.726;  126.764;15950.140; 0.00163; 0.00006
 420.06;  222.847;  168.670;15879.978; 0.00126; 0.00004
 420.65;  202.727;  155.164;15894.348; 0.00112; 0.00004
 421.24;  180.545;  120.869;15789.352; 0.00141; 0.00005
 421.83;  164.442;  107.869;15610.418; 0.00135; 0.00005
 422.43;  180.840;  123.968;15405.994; 0.00137; 0.00005
 423.02;  193.029;  152.165;15476.169; 0.00099; 0.00003
 423.61;  219.062;  162.074;15425.441; 0.00138; 0.00005
 424.20;  173.754;  134.772;15117.051; 0.00096; 0.00003
 424.79;  188.664;  145.875;15050.664; 0.00105; 0.00004
 425.38;  174.950;  120.671;14884.408; 0.00135; 0.00005
 425.98;  153.448;  106.470;14787.487; 0.00118; 0.00004
 426.57;  250.766;  185.876;14780.592; 0.00164; 0.00006
 427.16;  272.371;  196.677;14687.646; 0.00192; 0.00007
 427.75;  153.760;  113.374;14634.427; 0.00104; 0.00004
 428.34;  145.268;  105.476;14516.915; 0.00103; 0.00004
 428.93;  192.188;  143.182;14525.937; 0.00127; 0.00005
 429.53;  199.002;  147.486;14399.900; 0.00134; 0.00005
 430.12;  176.986;  111.081;14222.417; 0.00174; 0.00006
 430.71;  139.779;  102.079;14024.941; 0.00101; 0.00004
 431.30;  227.366;  177.075;14018.987; 0.00135; 0.00005
 431.89;  201.984;  139.481;13882.793; 0.00168; 0.00006
 432.48;  214.500;  167.685;13707.379; 0.00128; 0.00005
 433.08;  183.187;  125.282;13447.029; 0.00160; 0.00006
 433.67;  174.796;  134.684;13403.231; 0.00111; 0.00004
 434.26;  184.202;  132.886;13265.896; 0.00142; 0.00005
 434.85;  210.007;  150.987;13088.457; 0.00165; 0.00006
 435.44;  186.117;  135.390;12961.570; 0.00143; 0.00005
 436.03;  196.923;  156.292;12988.141; 0.00114; 0.00004
 436.62;  329.202;  249.186;12866.499; 0.00226; 0.00008
 437.21;  180.722;  142.792;12843.026; 0.00108; 0.00004
 437.81;  205.226;  161.293;12774.470; 0.00125; 0.00005
 438.40;  201.916;  162.390;12805.753; 0.00112; 0.00004
 438.99;  218.534;  144.495;12760.762; 0.00211; 0.00008
 439.58;  163.327;  124.993;12757.487; 0.00110; 0.00004
 440.17;  177.434;  132.595;12745.864; 0.00128; 0.00005
 440.76;  197.527;  158.293;12749.184; 0.00113; 0.00004
 441.35;  159.939;  113.797;12701.024; 0.00132; 0.00005
 441.94;  183.826;  149.493;12804.873; 0.00099; 0.00004
 442.53;  150.629;   95.694;12713.802; 0.00158; 0.00006
 443.12;  201.739;  145.797;12880.022; 0.00159; 0.00006
 443.72;  150.445;  105.499;12883.889; 0.00128; 0.00005
 444.31;  156.458;  119.602;12914.632; 0.00105; 0.00004
 444.90;  215.441;  177.597;13017.940; 0.00108; 0.00004
 445.49;  137.346;  114.599;12977.005; 0.00064; 0.00002
 446.08;  183.642;  132.398;13065.358; 0.00145; 0.00005
 446.67;  198.638;  141.996;13047.204; 0.00161; 0.00006
 447.26;  150.983;  108.810;13128.922; 0.00118; 0.00004
 447.85;  133.461;  103.903;13136.170; 0.00083; 0.00003
 448.44;  142.976;   96.507;13156.836; 0.00130; 0.00005
 449.03;  154.153;  105.201;13212.075; 0.00136; 0.00005
 449.62;  165.840;   98.197;13212.835; 0.00188; 0.00007
 450.21;  178.676;  142.608;13232.144; 0.00099; 0.00004
 450.80;  177.961;  132.803;13210.071; 0.00124; 0.00005
 451.39;  135.163;  102.204;13280.288; 0.00090; 0.00003
 451.98;  155.884;  116.710;13361.025; 0.00106; 0.00004
 452.57;  158.378;  123.308;13352.967; 0.00094; 0.00004
 453.17;  149.366;  103.805;13390.926; 0.00121; 0.00005
 453.76;  144.891;   98.212;13449.411; 0.00123; 0.00005
 454.35;  161.081;  119.209;13449.195; 0.00110; 0.00004
 454.94;  145.486;  113.110;13547.948; 0.00084; 0.00003
 455.53;  138.983;   98.810;13647.621; 0.00104; 0.00004
 456.12;  151.294;  110.013;13639.739; 0.00106; 0.00004
 456.71;  172.905;  143.616;13729.472; 0.00075; 0.00003
 457.30;  160.505;  109.316;13869.368; 0.00129; 0.00005
 457.89;  153.201;  122.815;13859.720; 0.00076; 0.00003
 458.48;  135.197;   86.714;13992.283; 0.00122; 0.00005
 459.07;  158.111;  133.618;14014.042; 0.00061; 0.00002
 459.66;  133.104;   94.616;14017.355; 0.00096; 0.00004
 460.25;  124.505;   91.816;14043.774; 0.00081; 0.00003
 460.84;  165.707;  115.516;14122.487; 0.00124; 0.00005
 461.43;  126.408;   92.917;14239.908; 0.00082; 0.00003
 462.02;  175.306;  135.216;14250.976; 0.00098; 0.00004
 462.61;  117.512;   90.918;14354.648; 0.00065; 0.00003
 463.20;  150.819;  108.920;14434.730; 0.00101; 0.00004
 463.79;  164.514;  127.419;14540.469; 0.00089; 0.00003
 464.38;  131.811;   82.818;14582.535; 0.00118; 0.00005
 464.97;  155.914;   96.319;14564.374; 0.00142; 0.00006
 465.56;  124.917;   86.920;14552.106; 0.00091; 0.00004
 466.15;  119.747;   89.628;14775.149; 0.00071; 0.00003
 466.74;  170.945;  115.128;14771.829; 0.00131; 0.00005
 467.32;  110.227;   63.923;14624.322; 0.00109; 0.00004
 467.91;  157.831;  112.124;14685.370; 0.00107; 0.00004
 468.50;  132.432;   76.624;14662.474; 0.00129; 0.00005
 469.09;  154.742;  101.027;14603.087; 0.00124; 0.00005
 469.68;  199.927;  168.922;14576.221; 0.00072; 0.00003
 470.27;  164.848;  125.529;14710.860; 0.00090; 0.00004
 470.86;  144.460;   94.832;14779.790; 0.00113; 0.00004
 471.45;  134.849;   98.329;14796.673; 0.00083; 0.00003
 472.04;  122.349;   75.729;14893.567; 0.00106; 0.00004
 472.63;  273.056;  199.831;14949.444; 0.00167; 0.00007
 473.22;  142.071;  104.735;15081.421; 0.00085; 0.00003
 473.81;  134.570;   83.335;15204.309; 0.00116; 0.00005
 474.40;  180.264;  139.133;15323.040; 0.00093; 0.00004
 474.99;  148.968;  108.034;15371.985; 0.00092; 0.00004
 475.58;  202.560;  144.432;15472.797; 0.00130; 0.00005
 476.17;  103.182;   77.639;15381.247; 0.00057; 0.00002
 476.76;  117.578;   72.837;15500.493; 0.00100; 0.00004
 477.34;  149.880;  108.738;15690.220; 0.00092; 0.00004
 477.93;  118.071;   82.435;15655.120; 0.00080; 0.00003
 478.52;  122.581;   77.138;15804.937; 0.00101; 0.00004
 479.11;  120.879;   67.038;15723.306; 0.00120; 0.00005
 479.70;  201.778;  150.437;15824.401; 0.00114; 0.00005
 480.29;   84.076;   35.837;15854.772; 0.00108; 0.00004
 480.88;  121.467;   83.734;15970.172; 0.00084; 0.00003
 481.47;  141.679;   93.738;16240.510; 0.00106; 0.00004
 482.06;  113.878;   82.137;16277.097; 0.00071; 0.00003
 482.64;  122.667;   76.234;16369.672; 0.00104; 0.00004
 483.23;  113.366;   66.934;16600.365; 0.00103; 0.00004
 483.82;  115.874;   65.236;16701.951; 0.00113; 0.00005
 484.41;  119.286;   83.640;16720.385; 0.00079; 0.00003
 485.00;   93.089;   68.640;16684.320; 0.00055; 0.00002
 485.59;  116.576;   84.837;16757.570; 0.00071; 0.00003
 486.18;  116.578;   67.837;16565.195; 0.00110; 0.00004
 486.77;  132.983;   99.239;16641.256; 0.00076; 0.00003
 487.35;  140.993;   97.942;16516.766; 0.00098; 0.00004
 487.94;  137.701;  103.544;16342.365; 0.00078; 0.00003
 488.53;  181.576;  120.337;16328.276; 0.00139; 0.00006
 489.12;  122.879;   78.338;16137.914; 0.00102; 0.00004
 489.71;  122.597;   73.043;16040.510; 0.00113; 0.00005
 490.30;  110.078;   75.137;15823.296; 0.00081; 0.00003
 490.89;  107.697;   77.243;15770.310; 0.00071; 0.00003
 491.47;  186.987;  141.540;15636.203; 0.00106; 0.00004
 492.06;  174.399;  121.544;15767.440; 0.00123; 0.00005
 492.65;   98.080;   73.638;15651.517; 0.00057; 0.00002
 493.24;  125.289;   85.340;15745.321; 0.00094; 0.00004
 493.83;  122.195;   73.942;15737.289; 0.00114; 0.00005
 494.42;   92.679;   53.138;15680.605; 0.00094; 0.00004
 495.00;  150.014;   93.948;15772.610; 0.00134; 0.00006
 495.59;  134.804;  101.745;15555.489; 0.00080; 0.00003
 496.18;  116.490;   75.841;15587.835; 0.00098; 0.00004
 496.77;   89.607;   55.746;15499.329; 0.00082; 0.00003
 497.36;  157.397;  108.643;15408.615; 0.00120; 0.00005
 497.94;  159.293;  116.542;15405.174; 0.00105; 0.00004
 498.53;  104.317;   70.649;15336.545; 0.00083; 0.00003
 499.12;   89.525;   49.051;15247.135; 0.00101; 0.00004
 499.71;  138.494;   84.842;15223.276; 0.00135; 0.00006
 500.30;  123.202;   74.944;15162.171; 0.00122; 0.00005
 500.88;  147.127;   97.752;15165.755; 0.00125; 0.00005
 501.47;  111.019;   77.949;15064.069; 0.00085; 0.00004
 502.06;  149.121;   85.650;15084.289; 0.00163; 0.00007
 502.65;  122.317;   71.749;15053.546; 0.00131; 0.00006
 503.23;  121.708;   67.646;14986.635; 0.00140; 0.00006
 503.82;  135.819;   67.349;15037.966; 0.00179; 0.00008
 504.41;  118.431;   53.153;14906.905; 0.00171; 0.00007
 505.00;  229.322;  155.250;14855.493; 0.00195; 0.00008
 505.58;  167.815;   96.648;14830.521; 0.00189; 0.00008
 506.17;  185.730;  114.252;14742.188; 0.00191; 0.00008
 506.76;  154.012;   81.647;14670.589; 0.00193; 0.00008
 507.35;  180.229;   99.352;14583.180; 0.00218; 0.00009
 507.93;  152.739;   76.655;14526.590; 0.00206; 0.00009
 508.52;  141.036;   63.054;14549.052; 0.00212; 0.00009
 509.11;  187.222;   70.950;14402.097; 0.00318; 0.00014
 509.70;  178.433;   60.253;14285.923; 0.00325; 0.00014
 510.28;  189.632;   96.753;14326.917; 0.00257; 0.00011
 510.87;  188.640;   68.556;14263.308; 0.00333; 0.00014
 511.46;  196.739;   63.355;14128.893; 0.00373; 0.00016
 512.05;  211.925;   53.451;14064.229; 0.00447; 0.00019
 512.63;  241.055;   85.560;14044.876; 0.00439; 0.00019
 513.22;  231.741;   60.356;13960.816; 0.00489; 0.00021
 513.81;  259.267;   74.763;13930.912; 0.00528; 0.00023
 514.40;  265.158;   56.561;13850.705; 0.00603; 0.00026
 514.98;  296.759;   91.761;13811.717; 0.00594; 0.00026
 515.57;  333.241;   98.256;13759.513; 0.00685; 0.00030
 516.16;  466.148;  194.558;13665.995; 0.00801; 0.00035
 516.74;  331.548;   61.158;13650.798; 0.00800; 0.00035
 517.33;  399.138;   93.655;13631.582; 0.00908; 0.00039
 517.92;  407.451;   77.059;13572.029; 0.00985; 0.00043
 518.50;  402.265;   50.163;13526.084; 0.01060; 0.00046
 519.09;  475.749;   76.358;13522.206; 0.01199; 0.00052
 519.68;  483.554;   63.860;13582.164; 0.01267; 0.00055
 520.26;  518.055;   61.960;13514.477; 0.01382; 0.00060
 520.85;  565.453;   67.859;13509.653; 0.01514; 0.00066
 521.44;  625.849;   83.258;13416.109; 0.01664; 0.00073
 522.02;  661.445;   48.057;13449.657; 0.01884; 0.00082
 522.61;  708.768;   54.064;13481.719; 0.02011; 0.00088
 523.20;  825.853;  102.759;13529.651; 0.02225; 0.00097
 523.78;  804.255;   36.860;13421.774; 0.02369; 0.00104
 524.37;  894.356;   81.160;13489.089; 0.02519; 0.00110
 524.96;  975.964;   53.963;13546.479; 0.02862; 0.00126
 525.54; 1101.263;   79.662;13559.268; 0.03175; 0.00139
 526.13; 1209.061;   86.061;13613.739; 0.03496; 0.00154
 526.72; 1218.156;   36.160;13636.987; 0.03689; 0.00162
 527.30; 1391.978;   79.866;13736.029; 0.04093; 0.00180
 527.89; 1497.273;   87.665;13772.479; 0.04406; 0.00194
 528.48; 1597.465;   67.963;13717.585; 0.04791; 0.00212
 529.06; 1757.472;   96.665;13839.567; 0.05200; 0.00230
 529.65; 1900.680;   87.867;13879.060; 0.05678; 0.00251
 530.23; 2086.992;   90.871;13985.299; 0.06258; 0.00277
 530.82; 2250.165;   92.763;14006.492; 0.06781; 0.00301
 531.41; 2380.770;   82.864;13952.847; 0.07259; 0.00322
 531.99; 2635.074;  128.365;14189.484; 0.07888; 0.00351
 532.58; 2759.583;   53.068;14202.188; 0.08547; 0.00380
 533.17; 3381.484;  372.868;14394.606; 0.09443; 0.00421
 533.75; 3250.974;   82.365;14400.594; 0.09948; 0.00444
 534.34; 3430.575;   46.266;14487.405; 0.10643; 0.00475
 534.92; 3755.077;  109.366;14675.321; 0.11417; 0.00510
 535.51; 3983.778;   65.267;14802.540; 0.12233; 0.00548
 536.10; 4282.073;   73.565;14892.283; 0.13184; 0.00591
 536.68; 4548.870;   46.464;14930.339; 0.14049; 0.00630
 537.27; 4890.287;   71.169;15110.231; 0.15028; 0.00675
 537.85; 5269.176;   79.266;15302.512; 0.16046; 0.00721
 538.44; 5627.290;   64.070;15447.575; 0.17123; 0.00771
 539.02; 5941.978;   44.966;15526.634; 0.18175; 0.00819
 539.61; 6305.681;   51.267;15661.866; 0.19126; 0.00863
 540.20; 6662.389;   99.270;15878.364; 0.19992; 0.00903
 540.78; 7176.684;   90.468;16158.702; 0.21414; 0.00968
 541.37; 7521.400;   64.073;16286.580; 0.22409; 0.01014
 541.95; 7955.595;  101.471;16484.824; 0.23502; 0.01065
 542.54; 8359.097;   80.672;16728.355; 0.24521; 0.01112
 543.12; 8845.783;  103.568;16867.094; 0.25706; 0.01167
 543.71; 9322.387;   90.769;17189.740; 0.26906; 0.01223
 544.29; 9632.982;   73.468;17314.779; 0.27655; 0.01258
 544.88;10172.580;   92.767;17689.258; 0.28842; 0.01313
 545.47;10464.278;   40.767;17727.537; 0.29751; 0.01356
 546.05;10936.194;   89.871;17966.822; 0.30706; 0.01401
 546.64;11543.185;  236.468;18134.611; 0.31898; 0.01457
 547.22;11771.500;   67.473;18293.980; 0.32747; 0.01498
 547.81;12173.703;  109.374;18506.514; 0.33447; 0.01531
 548.39;12421.894;   68.371;18651.521; 0.34221; 0.01568
 548.98;12760.592;   82.770;18741.889; 0.35137; 0.01612
 549.56;13142.695;   80.571;18939.928; 0.35897; 0.01649
 550.15;13303.391;   49.370;19057.387; 0.36419; 0.01675
 550.73;13610.612;   61.976;19266.816; 0.37136; 0.01709
 551.32;13896.308;   69.075;19436.779; 0.37758; 0.01740
 551.90;14058.392;   60.871;19450.693; 0.38257; 0.01765
 552.49;14310.007;   87.875;19831.463; 0.38639; 0.01784
 553.07;14429.396;  100.672;19986.041; 0.38945; 0.01800
 553.66;14570.599;   84.973;20108.471; 0.39198; 0.01814
 554.24;14727.812;  179.276;20174.721; 0.39590; 0.01834
 554.83;14723.903;   81.874;20293.715; 0.39623; 0.01837
 555.41;14807.104;   74.874;20431.230; 0.39823; 0.01849
 556.00;14802.503;   89.774;20531.824; 0.39621; 0.01841
 556.58;14794.718;   77.378;20630.889; 0.39692; 0.01846
 557.17;14836.615;   79.077;20893.254; 0.39669; 0.01847
 557.75;14800.326;   62.280;21027.377; 0.39625; 0.01847
 558.33;14831.812;   57.876;21327.117; 0.39377; 0.01838
 558.92;14806.524;   69.480;21511.662; 0.39195; 0.01831
 559.50;14715.114;   57.177;21679.539; 0.38853; 0.01817
 560.09;14726.315;   52.377;21966.859; 0.38754; 0.01814
 560.67;14596.016;   92.177;22094.262; 0.38286; 0.01794
 561.26;14749.012;  273.977;22325.426; 0.38047; 0.01785
 561.84;14376.618;   96.578;22537.285; 0.37511; 0.01761
 562.43;14199.728;   69.881;22665.506; 0.36940; 0.01736
 563.01;14007.811;   68.476;22804.908; 0.36552; 0.01720
 563.60;13911.114;   63.477;22987.145; 0.36218; 0.01706
 564.18;13547.312;   18.377;22954.326; 0.35596; 0.01678
 564.76;13453.318;   96.978;23225.584; 0.35108; 0.01657
 565.35;13278.722;   19.179;23472.633; 0.34695; 0.01639
 565.93;13124.222;   84.879;23797.533; 0.34098; 0.01613
 566.52;13011.317;   57.978;24374.377; 0.33697; 0.01595
 567.10;12749.927;   42.481;24673.195; 0.33182; 0.01573
 567.68;12610.011;   45.276;25084.010; 0.32708; 0.01552
 568.27;12355.420;   22.979;25516.410; 0.32156; 0.01527
 568.85;12350.223;  107.380;26141.744; 0.31749; 0.01509
 569.44;12017.927;   44.781;26641.191; 0.31117; 0.01481
 570.02;11804.019;    5.678;27187.600; 0.30548; 0.01455
 570.60;11647.126;   76.581;27742.281; 0.29868; 0.01424
 571.19;11474.620;   64.579;28157.010; 0.29349; 0.01401
 571.77;11303.614;   90.277;28428.947; 0.28902; 0.01381
 572.36;11084.313;   14.977;28979.928; 0.28430; 0.01360
 572.94;10918.623;   57.780;29391.047; 0.27847; 0.01333
 573.52;10681.826;   21.580;29856.078; 0.27290; 0.01308
 574.11;10473.027;   31.081;30210.297; 0.26630; 0.01278
 574.69;10335.816;   39.278;30610.469; 0.26269; 0.01262
 575.27;10201.819;   33.378;31068.201; 0.25803; 0.01241
 575.86; 9963.724;   44.780;31324.652; 0.25211; 0.01213
 576.44; 9854.426;   41.781;31821.682; 0.24856; 0.01197
 577.03; 9636.108;   38.175;32242.576; 0.24294; 0.01172
 577.61; 9508.611;   28.576;32332.604; 0.24046; 0.01161
 578.19; 9324.722;   27.179;32663.738; 0.23533; 0.01137
 578.78; 9122.821;   28.379;33150.430; 0.22999; 0.01113
 579.36; 8966.332;   21.282;33498.246; 0.22555; 0.01092
 579.94; 8891.309;   54.176;33838.488; 0.22230; 0.01077
 580.53; 8795.328;   50.281;33925.402; 0.21961; 0.01066
 581.11; 8639.822;   60.479;33902.137; 0.21455; 0.01042
 581.69; 8515.820;   82.579;33934.109; 0.21045; 0.01023
 582.28; 8318.621;   40.579;34024.719; 0.20677; 0.01006
 582.86; 8202.126;   29.580;34404.578; 0.20377; 0.00993
 583.44; 8028.824;   65.680;34290.453; 0.19914; 0.00971
 584.02; 7927.417;   43.078;34502.574; 0.19614; 0.00957
 584.61; 7835.315;   67.677;34367.449; 0.19324; 0.00944
 585.19; 7729.131;   72.082;34147.840; 0.19105; 0.00934
 585.77; 7586.123;   69.280;34324.949; 0.18765; 0.00919
 586.36; 7455.908;   34.775;34220.977; 0.18552; 0.00909
 586.94; 7309.032;   45.182;34264.648; 0.18219; 0.00894
 587.52; 7241.513;   16.577;34169.328; 0.18096; 0.00889
 588.11; 7105.126;   53.080;34027.176; 0.17781; 0.00874
 588.69; 7023.612;   76.376;34133.223; 0.17539; 0.00863
 589.27; 6858.127;   27.181;34017.098; 0.17313; 0.00853
 589.85; 6802.223;   34.080;34200.453; 0.17130; 0.00844
 590.44; 6682.427;   21.681;34417.695; 0.16857; 0.00832
 591.02; 6555.624;   37.680;34525.262; 0.16596; 0.00820
 591.60; 6452.812;   32.876;34488.723; 0.16360; 0.00809
 592.18; 6342.824;   49.980;34247.359; 0.16183; 0.00801
 592.77; 6227.706;   48.875;34253.250; 0.15938; 0.00790
 593.35; 6039.032;   16.382;34408.547; 0.15577; 0.00772
 593.93; 6037.830;    4.282;34700.426; 0.15579; 0.00773
 594.51; 5927.220;   28.279;34792.813; 0.15355; 0.00763
 595.10; 5758.020;  -19.621;35006.313; 0.15060; 0.00749
 595.68; 5703.829;   37.981;35184.211; 0.14834; 0.00739
 596.26; 5618.122;    5.179;35202.832; 0.14731; 0.00734
 596.84; 5489.115;  -11.623;35400.758; 0.14496; 0.00723
 597.43; 5389.115;   44.577;35554.852; 0.14141; 0.00706
 598.01; 5274.812;    5.076;35705.520; 0.13990; 0.00699
 598.59; 5212.029;    6.281;35872.508; 0.13832; 0.00692
 599.17; 5155.912;   16.776;35825.816; 0.13733; 0.00688
 599.76; 5034.222;   -1.421;35690.133; 0.13513; 0.00677
 600.34; 4894.105;   -2.426;35831.438; 0.13189; 0.00662
 600.92; 4842.315;   36.577;35801.262; 0.12997; 0.00653
 601.50; 4723.104;   -4.726;35980.527; 0.12802; 0.00644
 602.08; 4723.310;   74.876;35747.195; 0.12676; 0.00638
 602.67; 4586.807;   59.875;35853.664; 0.12387; 0.00624
 603.25; 4508.925;    6.580;35959.473; 0.12333; 0.00622
 603.83; 4404.626;   11.180;35792.375; 0.12103; 0.00611
 604.41; 4283.119;   -2.522;35914.496; 0.11847; 0.00598
 604.99; 4248.913;   47.377;36049.531; 0.11658; 0.00589
 605.58; 4126.802;    9.674;35814.113; 0.11561; 0.00585
 606.16; 4020.113;   14.777;35771.234; 0.11297; 0.00572
 606.74; 3926.108;   29.775;35656.973; 0.11051; 0.00560
 607.32; 3860.227;   15.481;35315.395; 0.10943; 0.00555
 607.90; 3826.514;   76.477;35155.938; 0.10730; 0.00545
 608.48; 3683.724;   21.180;34978.152; 0.10536; 0.00536
 609.07; 3634.630;   53.182;34852.227; 0.10364; 0.00528
 609.65; 3631.210;  109.676;34810.895; 0.10202; 0.00520
 610.23; 3461.212;   24.477;34730.625; 0.10023; 0.00511
 610.81; 3350.018;   -8.022;34496.090; 0.09834; 0.00502
 611.39; 3244.812;  -18.224;34449.219; 0.09597; 0.00490
 611.97; 3220.909;   23.876;34513.590; 0.09455; 0.00484
 612.55; 3149.727;   29.181;34686.289; 0.09233; 0.00473
 613.14; 3037.017;   -9.422;34700.883; 0.09060; 0.00464
 613.72; 2953.505;  -38.326;34388.938; 0.08977; 0.00460
 614.30; 2949.211;   -8.624;34659.613; 0.08860; 0.00455
 614.88; 2874.512;    2.576;34379.121; 0.08663; 0.00445
 615.46; 2775.815;    2.977;34221.359; 0.08416; 0.00433
 616.04; 2738.501;   25.773;33908.996; 0.08316; 0.00428
 616.62; 2689.405;   33.174;33753.336; 0.08145; 0.00420
 617.20; 2555.007;  -34.725;33597.859; 0.07983; 0.00412
 617.79; 2592.908;   50.475;33727.773; 0.07824; 0.00404
 618.37; 2463.325;  -18.220;33152.965; 0.07712; 0.00399
 618.95; 2409.511;   19.576;33161.605; 0.07476; 0.00387
 619.53; 2292.511;  -23.724;32939.707; 0.07282; 0.00377
 620.11; 2248.113;   -4.123;33004.430; 0.07114; 0.00369
 620.69; 2219.306;   -2.425;32959.859; 0.07055; 0.00366
 621.27; 2180.518;   33.878;32839.289; 0.06868; 0.00357
 621.85; 2112.111;   15.776;32868.613; 0.06704; 0.00348
 622.43; 2041.607;  -10.725;32800.363; 0.06634; 0.00345
 623.01; 1949.413;  -52.623;32647.637; 0.06506; 0.00339
 623.59; 1919.497;  -42.528;32613.248; 0.06404; 0.00334
 624.17; 1874.321;    6.579;32739.422; 0.06119; 0.00319
 624.76; 1830.603;  -11.726;32559.518; 0.06066; 0.00317
 625.34; 1787.017;  -10.722;32568.980; 0.05964; 0.00312
 625.92; 1754.718;   -0.122;32468.295; 0.05837; 0.00305
 626.50; 1666.516;  -31.322;32290.064; 0.05686; 0.00298
 627.08; 1663.023;   -6.320;32135.045; 0.05616; 0.00294
 627.66; 1605.219;    1.679;32275.604; 0.05403; 0.00283
 628.24; 1563.200;  -12.027;31949.385; 0.05351; 0.00281
 628.82; 1514.203;  -12.326;31947.217; 0.05193; 0.00273
 629.40; 1475.012;  -19.124;31771.922; 0.05108; 0.00269
 629.98; 1404.905;  -37.626;31671.943; 0.04950; 0.00261
 630.56; 1412.697;  -18.428;31838.951; 0.04922; 0.00259
 631.14; 1351.813;  -47.123;31703.836; 0.04831; 0.00255
 631.72; 1314.591;  -36.630;31831.287; 0.04673; 0.00247
 632.30; 1262.104;  -44.926;31650.430; 0.04556; 0.00241
 632.88; 1223.502;  -56.627;31645.305; 0.04483; 0.00237
 633.46; 1204.514;  -48.723;31591.738; 0.04410; 0.00234
 634.04; 1221.300;  -20.727;31630.781; 0.04377; 0.00232
 634.62; 1204.309;   13.576;31356.793; 0.04243; 0.00225
 635.20; 1160.205;   -5.226;31504.246; 0.04149; 0.00220
 635.78; 1066.406;  -48.825;31576.955; 0.04001; 0.00213
 636.36; 1055.106;  -48.025;31361.947; 0.03986; 0.00212
 636.94; 1102.392;   18.171;31584.695; 0.03922; 0.00209
 637.52; 1023.897;  -31.428;31522.854; 0.03834; 0.00204
 638.10;  961.797;  -67.128;31509.953; 0.03749; 0.00200
 638.68;  986.694;  -30.029;31569.314; 0.03715; 0.00198
 639.26;  977.615;  -15.123;31614.053; 0.03645; 0.00195
 639.84; 1012.910;   30.876;31718.201; 0.03613; 0.00193
 640.42;  883.207;  -48.125;31593.980; 0.03438; 0.00184
 641.00;  840.207;  -72.625;31727.652; 0.03366; 0.00180
 641.58;  854.508;  -32.725;31806.523; 0.03284; 0.00176
 642.16;  830.109;  -36.525;31878.197; 0.03207; 0.00172
 642.74;  830.809;  -15.124;32005.869; 0.03140; 0.00169
 643.32;  814.010;  -16.024;32003.541; 0.03092; 0.00166
 643.90;  805.710;  -24.724;31874.514; 0.03108; 0.00167
 644.47;  756.011;  -33.924;31967.086; 0.02972; 0.00160
 645.05;  736.311;  -43.024;32259.957; 0.02931; 0.00158
 645.63;  720.212;  -29.624;32513.930; 0.02822; 0.00152
 646.21;  728.812;  -40.423;32526.102; 0.02906; 0.00157
 646.79;  731.113;  -18.323;32665.674; 0.02836; 0.00153
 647.37;  679.513;  -48.523;32710.047; 0.02771; 0.00150
 647.95;  714.814;   11.777;32776.320; 0.02680; 0.00145
 648.53;  683.615;  -17.623;32969.391; 0.02675; 0.00145
 649.11;  615.315;  -59.123;33030.465; 0.02586; 0.00140
 649.69;  592.116;  -62.923;33200.035; 0.02517; 0.00137
 650.27;  605.816;  -37.322;33310.707; 0.02474; 0.00134
 650.85;  578.217;  -50.422;33928.180; 0.02419; 0.00132
 651.42;  567.017;  -54.322;34418.152; 0.02404; 0.00131
 652.00;  531.018;  -69.822;34969.625; 0.02320; 0.00126
 652.58;  566.018;  -42.522;35191.797; 0.02357; 0.00129
 653.16;  535.619;  -49.022;36135.668; 0.02270; 0.00124
 653.74;  569.119;  -19.021;36648.441; 0.02286; 0.00125
 654.32;  569.920;    0.879;37165.813; 0.02214; 0.00121
 654.90;  514.821;  -21.321;37183.387; 0.02087; 0.00114
 655.48;  488.321;  -53.621;36928.457; 0.02118; 0.00116
 656.05;  456.222;  -79.821;36971.133; 0.02095; 0.00115
 656.63;  484.122;  -44.121;37052.504; 0.02067; 0.00113
 657.21;  482.923;  -39.120;36949.676; 0.02047; 0.00112
 657.79;  523.823;   20.480;36851.949; 0.01969; 0.00108
 658.37;  613.224;   92.380;36239.219; 0.02051; 0.00113
 658.95;  444.924;  -40.820;35664.891; 0.01918; 0.00106
 659.53;  464.125;  -26.220;35354.664; 0.01930; 0.00106
 660.10;  407.225;  -46.620;34605.535; 0.01802; 0.00099
 660.68;  407.726;  -48.119;34863.910; 0.01807; 0.00100
 661.26;  414.827;  -22.219;34861.480; 0.01733; 0.00096
 661.84;  415.127;   -6.319;34877.855; 0.01679; 0.00093
 662.42;  399.428;  -33.619;34987.824; 0.01727; 0.00096
 663.00;  437.128;    2.181;35223.297; 0.01735; 0.00096
 663.57;  388.229;  -25.819;35418.969; 0.01652; 0.00092
 664.15;  340.629;  -59.519;35596.441; 0.01593; 0.00088
 664.73;  354.530;  -22.218;35720.516; 0.01506; 0.00084
 665.31;  349.930;  -41.418;35988.887; 0.01562; 0.00087
 665.89;  342.731;  -33.618;36325.660; 0.01496; 0.00083
 666.46;  304.231;  -65.918;36449.031; 0.01471; 0.00082
 667.04;  307.432;  -67.318;36462.703; 0.01491; 0.00083
 667.62;  302.333;  -53.018;36704.078; 0.01413; 0.00079
 668.20;  342.133;  -13.117;36966.848; 0.01414; 0.00079
 668.78;  303.834;  -47.417;37359.223; 0.01390; 0.00078
 669.35;  502.234;  130.883;37649.895; 0.01470; 0.00082
 669.93;  286.335;  -43.617;37991.066; 0.01300; 0.00073
 670.51;  268.535;  -76.017;38145.738; 0.01355; 0.00076
 671.09;  284.436;  -49.617;38209.109; 0.01311; 0.00074
 671.66;  317.936;  -13.216;38580.684; 0.01296; 0.00073
 672.24;  243.637;  -62.016;38670.656; 0.01198; 0.00067
 672.82;  299.937;  -34.916;39357.125; 0.01303; 0.00073
 673.40;  255.938;  -60.016;39317.500; 0.01234; 0.00069
 673.97;  280.639;  -39.716;39754.371; 0.01251; 0.00070
 674.55;  224.239;  -69.416;40012.742; 0.01148; 0.00065
 675.13;  265.840;  -27.216;40245.215; 0.01146; 0.00065
 675.71;  219.840;  -81.115;40351.789; 0.01179; 0.00067
 676.28;  258.241;  -32.215;40497.563; 0.01139; 0.00064
 676.86;  246.941;  -35.215;40881.934; 0.01099; 0.00062
 677.44;  246.742;  -39.115;41243.406; 0.01108; 0.00063
 678.01;  208.842;  -56.715;41566.777; 0.01023; 0.00058
 678.59;  232.843;  -41.615;41856.949; 0.01056; 0.00060
 679.17;  264.643;  -15.414;42126.723; 0.01071; 0.00061
 679.75;  212.644;  -61.014;42527.496; 0.01041; 0.00059
 680.32;  198.745;  -63.114;42799.965; 0.00993; 0.00056
 680.90;  187.645;  -73.114;42983.039; 0.00988; 0.00056
 681.48;  221.146;  -35.014;43704.012; 0.00960; 0.00055
 682.05;  229.846;  -15.214;43718.582; 0.00922; 0.00053
 682.63;  162.947;  -83.013;44042.055; 0.00926; 0.00053
 683.21;  175.047;  -66.313;44531.629; 0.00902; 0.00052
 683.78;  172.348;  -48.413;44788.398; 0.00825; 0.00047
 684.36;  172.348;  -67.313;44854.273; 0.00896; 0.00051
 684.94;  143.649;  -70.513;45147.445; 0.00801; 0.00046
 685.52;  171.049;  -45.613;45579.016; 0.00809; 0.00046
 686.09;  157.750;  -63.112;45676.688; 0.00827; 0.00047
 686.67;  145.351;  -72.812;45566.063; 0.00819; 0.00047
 687.25;  166.051;  -34.212;45785.234; 0.00753; 0.00043
 687.82;  134.852;  -59.912;45951.406; 0.00733; 0.00042
 688.40;  160.552;  -33.312;46290.379; 0.00728; 0.00042
 688.97;  135.553;  -63.312;46223.852; 0.00750; 0.00043
 689.55;  125.053;  -73.912;46394.621; 0.00748; 0.00043
 690.13;  154.854;  -32.711;46349.594; 0.00707; 0.00041
 690.70;  188.354;    3.589;46622.266; 0.00699; 0.00040
 691.28;  144.855;  -30.511;46828.539; 0.00661; 0.00038
 691.86;  162.255;  -26.811;47108.512; 0.00715; 0.00041
 692.43;  118.956;  -49.811;47368.785; 0.00638; 0.00037
 693.01;  122.857;  -48.211;47615.758; 0.00646; 0.00037
 693.59;  175.157;    4.790;47501.730; 0.00645; 0.00037
 694.16;  104.058;  -71.310;47670.801; 0.00665; 0.00039
 694.74;  133.058;  -35.810;48102.574; 0.00640; 0.00037
 695.31;  105.059;  -67.010;48244.445; 0.00652; 0.00038
 695.89;   82.859;  -65.610;48315.719; 0.00565; 0.00033
 696.47;   92.660;  -65.310;48414.789; 0.00601; 0.00035
 697.04;  187.760;   27.591;48520.863; 0.00611; 0.00036
 697.62;  133.161;  -11.709;48766.734; 0.00550; 0.00032
 698.19;  115.461;  -43.109;48808.207; 0.00604; 0.00035
 698.77;  140.962;  -14.509;49016.680; 0.00590; 0.00034
 699.34;  117.663;  -23.609;49065.551; 0.00538; 0.00031
 699.92;  112.563;  -31.909;49022.223; 0.00551; 0.00032
 700.50;   62.664;  -62.509;49321.195; 0.00477; 0.00028
 701.07;   97.164;  -41.808;49435.668; 0.00530; 0.00031
 701.65;  100.465;  -40.408;49736.641; 0.00535; 0.00031
 702.22;  104.165;  -27.708;49895.914; 0.00502; 0.00029
 702.80;  115.466;  -12.708;49964.785; 0.00490; 0.00029
 703.37;  116.166;  -17.408;50193.457; 0.00510; 0.00030
 703.95;  108.167;  -25.908;50479.629; 0.00513; 0.00030
 704.52;   87.367;  -36.807;50941.102; 0.00473; 0.00028
 705.10;   64.368;  -71.907;51257.973; 0.00520; 0.00031
 705.68;   38.769;  -71.807;51457.348; 0.00422; 0.00025
 706.25;   62.869;  -51.107;51790.617; 0.00435; 0.00026
 706.83;   81.270;  -19.407;51709.492; 0.00385; 0.00023
 707.40;  108.370;   -5.507;51802.363; 0.00436; 0.00026
 707.98;   68.271;  -32.306;52174.938; 0.00384; 0.00023
 708.55;   60.971;  -41.406;52212.406; 0.00392; 0.00023
 709.13;   61.572;  -39.006;52351.980; 0.00385; 0.00023
 709.70;   95.272;  -10.106;52634.453; 0.00404; 0.00024
 710.28;   67.273;  -34.606;52829.727; 0.00390; 0.00023
 710.85;   54.973;  -46.506;52866.598; 0.00390; 0.00023
 711.43;   36.574;  -57.805;53221.270; 0.00361; 0.00021
 712.00;  109.475;    4.195;53035.141; 0.00405; 0.00024
 712.58;   60.475;  -32.305;53267.813; 0.00356; 0.00021
 713.15;   95.676;  -18.105;53512.387; 0.00437; 0.00026
 713.73;  217.676;  106.895;53688.059; 0.00426; 0.00025
 714.30;   96.277;   -7.605;53973.031; 0.00399; 0.00024
 714.88;   28.277;  -56.705;53874.602; 0.00327; 0.00020
 715.45;   69.478;  -12.804;54110.676; 0.00317; 0.00019
 716.03;   59.078;  -38.504;54504.449; 0.00375; 0.00022
 716.60;   63.379;  -36.304;54248.020; 0.00386; 0.00023
 717.17;   26.879;  -50.204;54334.492; 0.00300; 0.00018
 717.75;   62.380;  -28.204;54719.965; 0.00351; 0.00021
 718.32;   76.781;   -5.404;54422.438; 0.00320; 0.00019
 718.90;   45.081;  -44.003;54219.508; 0.00348; 0.00021
 719.47;   53.082;  -34.803;54395.980; 0.00344; 0.00021
 720.05;   61.182;  -19.203;54543.352; 0.00315; 0.00019
 720.62;   32.583;  -32.503;54725.727; 0.00255; 0.00015
 721.20;   92.683;    1.497;54603.398; 0.00361; 0.00022
 721.77;   74.184;  -13.003;54810.770; 0.00345; 0.00021
 722.34;   52.184;  -25.502;54964.742; 0.00307; 0.00019
 722.92;   12.285;  -69.302;54886.816; 0.00325; 0.00020
 723.49;  -18.215;  -86.002;55052.387; 0.00270; 0.00016
 724.07;   49.286;  -14.402;55315.660; 0.00253; 0.00015
 724.64;   42.187;  -38.502;55283.133; 0.00322; 0.00020
 725.21;   45.687;  -36.502;55661.605; 0.00327; 0.00020
 725.79;   56.688;  -14.802;55881.777; 0.00285; 0.00017
 726.36;   37.388;  -24.801;56024.648; 0.00248; 0.00015
 726.94;   31.789;  -42.201;56315.820; 0.00296; 0.00018
 727.51;   26.389;  -31.701;56807.895; 0.00231; 0.00014
 728.08;   24.990;  -40.401;56846.766; 0.00261; 0.00016
 728.66;   18.990;  -36.201;57255.438; 0.00221; 0.00013
 729.23;    6.291;  -46.301;57826.512; 0.00210; 0.00013
 729.80;  -11.209;  -65.500;57723.582; 0.00218; 0.00013
 730.38;   34.092;  -24.600;58136.555; 0.00235; 0.00014
 730.95;    7.393;  -48.200;58380.727; 0.00223; 0.00014
 731.53;   52.993;  -19.900;58386.398; 0.00292; 0.00018
 732.10;   49.294;  -26.100;58444.473; 0.00303; 0.00019
 732.67;    4.394;  -49.900;58673.445; 0.00219; 0.00013
 733.25;   65.295;   13.001;58645.816; 0.00211; 0.00013
 733.82;   10.795;  -41.199;58935.488; 0.00210; 0.00013
 734.39;   33.796;  -26.699;59133.359; 0.00244; 0.00015
 734.97;    1.996;  -48.699;59207.234; 0.00205; 0.00013
 735.54;   79.397;   24.901;59275.906; 0.00221; 0.00014
 736.11;   31.597;  -27.699;59227.777; 0.00241; 0.00015
 736.69;   82.898;   21.402;59661.551; 0.00249; 0.00015
 737.26;   29.099;  -17.298;59761.621; 0.00188; 0.00012
 737.83;    0.499;  -53.198;59570.594; 0.00219; 0.00013
 738.41;   -3.000;  -65.298;59493.766; 0.00254; 0.00016
 738.98;    5.800;  -44.998;59380.039; 0.00208; 0.00013
 739.55;   56.901;    2.402;59269.609; 0.00223; 0.00014
 740.12;    9.901;  -43.198;59404.781; 0.00217; 0.00013
 740.70;   -9.998;  -58.897;59095.055; 0.00201; 0.00012
 741.27;  -13.198;  -58.297;59266.027; 0.00185; 0.00011
 741.84;  -40.497;  -78.697;58997.301; 0.00158; 0.00010
 742.42;    4.003;  -47.997;58935.172; 0.00215; 0.00013
 742.99;   53.904;    2.903;59108.945; 0.00211; 0.00013
 743.56;   12.705;  -38.597;58782.516; 0.00214; 0.00013
 744.13;  -21.195;  -60.096;58925.988; 0.00162; 0.00010
 744.71;  165.006;   98.204;59260.961; 0.00278; 0.00017
 745.28;   17.206;  -24.796;59793.035; 0.00175; 0.00011
 745.85;   -7.893;  -48.396;60592.605; 0.00169; 0.00011
 746.42;   10.707;  -34.996;60780.477; 0.00192; 0.00012
 747.00;   18.808;  -27.496;60843.250; 0.00196; 0.00012
 747.57;  144.108;   94.605;61990.422; 0.00209; 0.00013
 748.14;    3.009;  -42.195;62691.895; 0.00192; 0.00012
 748.71;   28.209;  -16.295;62852.969; 0.00189; 0.00012
 749.29;   17.510;  -22.195;63047.340; 0.00169; 0.00011
 749.86;   22.511;  -34.295;62964.410; 0.00243; 0.00015
 750.43;   -8.289;  -37.195;62938.785; 0.00124; 0.00008
 751.00;  -28.888;  -60.395;63066.457; 0.00136; 0.00009
 751.58;  -10.488;  -53.194;62976.328; 0.00185; 0.00012
 752.15;  177.213;  103.706;62703.602; 0.00320; 0.00020
 752.72;  -34.287;  -67.394;62198.273; 0.00144; 0.00009
 753.29;  115.414;   53.406;61943.344; 0.00271; 0.00017
 753.86;  -30.086;  -64.594;61476.219; 0.00152; 0.00010
 754.44;   19.015;  -19.394;60961.590; 0.00169; 0.00011
 755.01;  -13.985;  -43.793;61186.664; 0.00132; 0.00008
 755.58;  -12.884;  -41.493;61188.133; 0.00127; 0.00008
 756.15;    5.617;  -33.793;61287.309; 0.00176; 0.00011
 756.72;   41.017;   -8.993;61241.980; 0.00224; 0.00014
 757.29;    8.118;  -25.193;61520.852; 0.00149; 0.00009
 757.87;  -30.082;  -66.893;61177.625; 0.00167; 0.00011
 758.44;  -23.881;  -49.592;61340.598; 0.00117; 0.00007
 759.01;    2.719;  -33.492;61652.770; 0.00164; 0.00010
 759.58;  -36.980;  -61.392;61150.539; 0.00112; 0.00007
 760.15;   21.620;  -19.092;61244.414; 0.00187; 0.00012
 760.72;  -41.079;  -66.892;61275.887; 0.00119; 0.00008
 761.30;  -28.979;  -57.292;61491.059; 0.00131; 0.00008
 761.87;   -4.778;  -23.091;61700.730; 0.00085; 0.00005
 762.44;  -26.877;  -58.191;61389.602; 0.00146; 0.00009
 763.01;   16.923;  -12.991;61658.973; 0.00140; 0.00009
 763.58;   18.224;  -14.891;61295.145; 0.00156; 0.00010
 764.15;   11.024;  -24.191;61126.418; 0.00167; 0.00011
 764.72;   -0.275;  -36.591;61225.391; 0.00172; 0.00011
 765.30;  -21.175;  -56.491;60961.664; 0.00168; 0.00011
 765.87;   -8.674;  -36.690;60665.336; 0.00135; 0.00009
 766.44;   45.726;   14.410;60815.809; 0.00150; 0.00010
 767.01;   37.527;    3.110;60390.180; 0.00166; 0.00011
 767.58;  -51.573;  -90.290;60249.254; 0.00188; 0.00012
 768.15;   30.028;    4.410;60025.125; 0.00125; 0.00008
 768.72;  -19.771;  -60.090;60071.797; 0.00197; 0.00013
 769.29;  -27.971;  -67.089;59639.867; 0.00193; 0.00012
 769.86;   13.430;  -23.589;59723.941; 0.00183; 0.00012
 770.43;  -47.070;  -70.789;59481.012; 0.00118; 0.00008
 771.00;   -0.269;  -23.889;59468.387; 0.00118; 0.00008
 771.58;   -5.369;  -28.989;59318.758; 0.00118; 0.00008
 772.15;  -30.068;  -52.189;58759.230; 0.00112; 0.00007
 772.72;  -13.868;  -37.988;58501.004; 0.00123; 0.00008
 773.29;  -15.567;  -35.288;58823.375; 0.00100; 0.00006
 773.86;  -36.967;  -63.988;58642.848; 0.00138; 0.00009
 774.43;  -16.966;  -45.688;58347.719; 0.00148; 0.00010
 775.00;    2.435;  -35.588;58084.594; 0.00197; 0.00013
 775.57;    2.135;  -19.788;58187.266; 0.00114; 0.00007
 776.14;   12.836;  -18.088;57666.438; 0.00162; 0.00011
 776.71;   20.136;   -8.287;57754.707; 0.00150; 0.00010
 777.28;  -13.963;  -40.287;57916.582; 0.00139; 0.00009
 777.85;  -12.363;  -35.687;57633.352; 0.00124; 0.00008
 778.42;    3.138;  -21.987;57701.227; 0.00134; 0.00009
 778.99;   14.838;   -5.487;57689.199; 0.00109; 0.00007
 779.56;  -20.061;  -38.687;57683.570; 0.00101; 0.00007
 780.13;  -18.461;  -32.086;57522.441; 0.00074; 0.00005
 780.70;   16.940;   -9.286;57127.715; 0.00144; 0.00009
 781.27;   -2.059;   -7.286;57373.688; 0.00029; 0.00002
 781.84;  -34.759;  -46.486;57035.359; 0.00065; 0.00004
 782.41;   -1.158;    2.714;57011.230;-0.00022;-0.00001
 782.98;  -16.058;  -40.186;56933.703; 0.00135; 0.00009
 783.55;    8.743;  -26.885;56749.277; 0.00200; 0.00013
 784.12;   -3.557;   -8.485;56663.449; 0.00028; 0.00002
 784.69;   11.244;   -0.885;56571.520; 0.00069; 0.00005
 785.26;  -10.556;  -38.585;56155.594; 0.00161; 0.00011
 785.83;  -58.155;  -65.785;56493.266; 0.00044; 0.00003
 786.40;    6.345;    0.715;56145.137; 0.00032; 0.00002
 786.97;   18.146;    3.616;56138.109; 0.00084; 0.00006
 787.54;   29.647;   10.016;55947.883; 0.00115; 0.00008
 788.11;   22.947;    3.716;55781.355; 0.00113; 0.00007
 788.68;  -26.752;  -43.284;55704.926; 0.00098; 0.00006
 789.25;  -11.652;  -19.784;55524.000; 0.00048; 0.00003
 789.82;    1.949;  -19.184;55552.473; 0.00126; 0.00008
 790.39;   11.849;  -20.284;55451.941; 0.00193; 0.00013
 790.96;  -26.750;  -30.183;55430.816; 0.00021; 0.00001
 791.52;  -28.750;  -42.683;55217.586; 0.00085; 0.00006
 792.09;   41.751;   20.717;55290.262; 0.00129; 0.00009
 792.66;    1.251;  -17.783;54793.531; 0.00118; 0.00008
 793.23;   58.352;   29.917;54894.703; 0.00176; 0.00012
 793.80;    1.453;  -20.883;54770.176; 0.00139; 0.00009
 794.37;   -2.447;  -12.482;54456.648; 0.00063; 0.00004
 794.94;    3.554;  -15.882;54176.121; 0.00122; 0.00008
 795.51;   -9.346;  -28.782;54046.492; 0.00123; 0.00008
 796.08;  -18.245;  -24.282;53871.066; 0.00038; 0.00003
 796.65;  -21.345;  -32.682;53578.039; 0.00073; 0.00005
 797.21;   33.756;   15.018;53301.109; 0.00120; 0.00008
 797.78;    4.156;   -2.581;52997.883; 0.00044; 0.00003
 798.35;   44.057;   21.219;52509.055; 0.00149; 0.00010
 798.92;  616.557;  513.919;52532.129; 0.00671; 0.00045
 799.49;  -24.042;  -35.681;52089.301; 0.00077; 0.00005
 800.06;   46.459;   28.719;51915.273; 0.00118; 0.00008
 800.63;   21.659;   14.719;51659.145; 0.00046; 0.00003
 801.20;   -9.840;   -5.981;51781.215;-0.00026;-0.00002
 801.76;   -8.640;  -16.280;51808.391; 0.00051; 0.00003
 802.33;   10.061;  -19.980;51489.063; 0.00204; 0.00014
 802.90;   36.861;   13.720;51322.234; 0.00158; 0.00011
 803.47;   -4.638;  -18.880;51648.906; 0.00097; 0.00007
 804.04;    6.162;  -35.980;51628.277; 0.00288; 0.00019
 804.61;   32.763;   19.920;51369.352; 0.00088; 0.00006
 805.17;  -15.737;  -29.679;51365.223; 0.00096; 0.00006
 805.74;  -21.636;  -39.079;51444.695; 0.00120; 0.00008
 806.31;   19.565;   -5.479;51037.367; 0.00174; 0.00012
 806.88;  -45.835;  -54.379;51096.238; 0.00059; 0.00004
 807.45;  -50.334;  -68.279;50997.012; 0.00125; 0.00008
 808.01;  -12.534;  -10.179;50947.582;-0.00016;-0.00001
 808.58;   55.867;   46.122;50841.555; 0.00069; 0.00005
 809.15;   -3.233;   -2.878;50956.328;-0.00002; 0.00000
 809.72;    9.168;   -0.878;50689.500; 0.00071; 0.00005
 810.29;    6.268;  -17.978;50169.973; 0.00174; 0.00012
 810.85;   -4.331;  -26.178;50108.844; 0.00158; 0.00011
 811.42;   -3.331;  -28.178;49628.117; 0.00182; 0.00012
 811.99;   -4.330;  -21.777;49373.191; 0.00128; 0.00009
 812.56;  -31.729;  -33.177;48973.660; 0.00011; 0.00001
 813.12;   15.171;   -3.077;48451.535; 0.00138; 0.00009
 813.69;   -2.128;  -13.577;48256.105; 0.00087; 0.00006
 814.26;   -4.428;  -20.277;47696.578; 0.00122; 0.00008
 814.83;  -11.327;  -31.777;47276.250; 0.00159; 0.00011
 815.39;  -39.227;  -59.377;47147.422; 0.00158; 0.00011
 815.96;    5.874;  -17.676;46894.797; 0.00186; 0.00013
 816.53;   58.974;   31.324;46686.770; 0.00220; 0.00015
 817.10;  -12.425;  -36.476;46572.539; 0.00193; 0.00013
 817.66;  -44.025;  -62.676;46288.414; 0.00151; 0.00010
 818.23;  -61.924;  -64.176;46067.184; 0.00018; 0.00001
 818.80;  -50.323;  -57.476;45888.656; 0.00058; 0.00004
 819.37;    4.777;  -14.975;45872.930; 0.00162; 0.00011
 819.93;  -35.822;  -52.875;45789.703; 0.00141; 0.00010
 820.50;  -51.222;  -60.375;45226.676; 0.00076; 0.00005
 821.07;  -45.421;  -53.175;45200.645; 0.00065; 0.00004
 821.63;   94.779;   55.925;44835.719; 0.00328; 0.00023
 822.20;   79.380;   64.025;44818.590; 0.00130; 0.00009
 822.77;   -1.320;  -15.174;44641.164; 0.00118; 0.00008
 823.34;  -19.619;  -35.774;44447.734; 0.00139; 0.00010
 823.90;  -30.819;  -36.574;44150.906; 0.00050; 0.00003
 824.47;   -7.718;  -11.074;44035.379; 0.00029; 0.00002
 825.04;  -23.317;  -41.474;43910.254; 0.00159; 0.00011
 825.60;  -11.617;  -14.574;43882.324; 0.00026; 0.00002
 826.17;  -45.916;  -55.874;43471.496; 0.00089; 0.00006
 826.74;  -38.216;  -44.173;43311.770; 0.00053; 0.00004
 827.30;  -38.415;  -53.173;42923.641; 0.00133; 0.00009
 827.87;  -13.215;  -20.273;42849.914; 0.00064; 0.00004
 828.43;   -4.814;  -26.873;42678.484; 0.00200; 0.00014
 829.00;  -35.614;  -65.173;42585.656; 0.00269; 0.00019
 829.57;  -18.513;  -25.773;42440.332; 0.00066; 0.00005
 830.13;  -69.013;  -73.272;42015.703; 0.00039; 0.00003
 830.70;  -36.012;  -56.972;41864.375; 0.00193; 0.00013
 831.27;  -31.011;  -33.672;41474.148; 0.00025; 0.00002
 831.83;  -61.311;  -53.372;41387.020;-0.00074;-0.00005
 832.40;  -18.210;  -22.572;41185.090; 0.00041; 0.00003
 832.97;   31.190;    6.828;41002.664; 0.00230; 0.00016
 833.53;  -33.109;  -43.071;41077.836; 0.00094; 0.00007
 834.10;  -28.509;  -39.071;40836.008; 0.00101; 0.00007
 834.66;  -36.708;  -53.871;40648.781; 0.00165; 0.00011
 835.23;  -22.408;  -42.671;40573.055; 0.00195; 0.00014
 835.80;  -47.307;  -61.771;40440.824; 0.00140; 0.00010
 836.36;  -38.107;  -41.671;40334.199; 0.00035; 0.00002
 836.93;   -8.706;  -18.970;40271.168; 0.00100; 0.00007
 837.49;   31.195;   18.630;40151.543; 0.00123; 0.00009
 838.06;  -12.305;  -28.470;40058.313; 0.00159; 0.00011
 838.62;  -10.904;  -48.070;39899.086; 0.00367; 0.00026
 839.19;  -20.004;  -37.770;39905.758; 0.00176; 0.00012
 839.76;  -38.303;  -32.870;39728.430;-0.00054;-0.00004
 840.32;  -55.203;  -66.470;39485.805; 0.00113; 0.00008
 840.89;  194.298;  172.031;39678.176; 0.00224; 0.00016
 841.45;   -8.502;  -25.669;39488.348; 0.00173; 0.00012
 842.02;  -60.801;  -76.369;39167.621; 0.00158; 0.00011
 842.58;  -45.301;  -50.069;39187.094; 0.00049; 0.00003
 843.15;   24.100;   -4.269;39180.465; 0.00291; 0.00021
 843.71;  -48.199;  -48.569;39060.836; 0.00004; 0.00000
 844.28;  -72.999;  -79.768;38864.809; 0.00070; 0.00005
 844.84;  -10.698;  -21.268;38862.082; 0.00109; 0.00008
 845.41;  -28.298;  -51.168;38615.355; 0.00239; 0.00017
 845.97;  -47.697;  -56.768;38402.527; 0.00095; 0.00007
 846.54;  -30.597;  -51.168;38075.898; 0.00218; 0.00015
 847.10;  -19.796;  -35.168;38229.371; 0.00162; 0.00012
 847.67;  -47.596;  -58.667;37966.344; 0.00118; 0.00008
 848.23;  -23.095;  -48.767;38067.414; 0.00273; 0.00019
 848.80;   -0.495;  -17.467;38042.086; 0.00181; 0.00013
 849.36;  -27.994;  -46.167;37738.262; 0.00196; 0.00014
 849.93;  -30.193;  -31.867;37655.934; 0.00018; 0.00001
 850.49;  -24.293;  -39.867;37582.004; 0.00170; 0.00012
 851.06;  -53.292;  -69.367;37505.277; 0.00175; 0.00012
 851.62;  -35.292;  -54.266;37262.051; 0.00209; 0.00015
 852.19;  -44.091;  -42.866;37233.020;-0.00013;-0.00001
 852.75;  -56.191;  -60.466;37155.895; 0.00047; 0.00003
 853.32;  -24.190;  -28.666;37105.266; 0.00050; 0.00004
 853.88;  -20.690;  -39.666;36902.438; 0.00213; 0.00015
 854.45;  -10.089;  -18.166;37137.012; 0.00090; 0.00006
 855.01;   12.911;   -2.965;37010.383; 0.00178; 0.00013
 855.57;  -42.288;  -51.465;36921.453; 0.00103; 0.00007
 856.14;  -53.487;  -63.265;36626.629; 0.00111; 0.00008
 856.70;  -52.587;  -49.365;36714.199;-0.00037;-0.00003
 857.27;  -25.486;  -44.865;36510.172; 0.00222; 0.00016
 857.83;  -81.586;  -84.265;36357.344; 0.00031; 0.00002
 858.40;   22.415;   -2.264;36322.215; 0.00284; 0.00020
 858.96;  -30.385;  -44.364;36140.387; 0.00162; 0.00012
 859.52;  -22.784;  -42.264;36171.262; 0.00226; 0.00016
 860.09;  -24.584;  -43.564;35921.734; 0.00222; 0.00016
 860.65;  -18.383;  -34.264;35764.504; 0.00186; 0.00013
 861.22;  -32.983;  -42.764;35727.977; 0.00115; 0.00008
 861.78;   -5.882;  -17.363;35638.051; 0.00136; 0.00010
 862.34;  -36.181;  -50.163;35649.922; 0.00166; 0.00012
 862.91;  -16.881;  -41.863;35682.594; 0.00296; 0.00021
 863.47;   82.220;   60.137;35224.566; 0.00265; 0.00019
 864.03;  -59.180;  -59.263;35401.738; 0.00001; 0.00000
 864.60;   16.321;  -21.663;35293.512; 0.00456; 0.00033
 865.16;  -58.179;  -66.963;35132.184; 0.00106; 0.00008
 865.73;  -30.378;  -31.262;35111.855; 0.00011; 0.00001
 866.29;  108.922;   71.938;35043.527; 0.00451; 0.00033
 866.85;  -61.177;  -70.162;34721.301; 0.00110; 0.00008
 867.42;  -28.177;  -40.162;34616.371; 0.00147; 0.00011
 867.98;  -60.276;  -64.262;34527.145; 0.00049; 0.00004
 868.54;    2.925;  -24.162;34441.617; 0.00336; 0.00024
 869.11;  -61.575;  -61.461;34366.289;-0.00001; 0.00000
 869.67;  -33.074;  -42.861;34234.863; 0.00123; 0.00009
 870.23;  -31.774;  -40.861;34228.133; 0.00115; 0.00008
 870.80;  -35.673;  -52.761;33878.707; 0.00218; 0.00016
 871.36;  -43.773;  -63.361;33584.379; 0.00252; 0.00018
 871.92;   31.928;    8.139;33514.352; 0.00308; 0.00022
 872.48;  -75.272;  -60.360;33352.023;-0.00194;-0.00014
 873.05;  -26.271;  -35.560;33107.297; 0.00122; 0.00009
 873.61;  -35.071;  -45.160;33006.969; 0.00133; 0.00010
 874.17;  -16.970;  -40.060;32897.238; 0.00307; 0.00022
 874.74;  -31.670;  -53.560;32747.340; 0.00292; 0.00021
 875.30;  -27.170;  -37.760;32872.738; 0.00141; 0.00010
 875.86;  -41.770;  -51.360;32962.238; 0.00128; 0.00009
 876.42;  -58.670;  -67.560;32924.941; 0.00119; 0.00009
 876.99;  -40.070;  -48.260;32876.039; 0.00110; 0.00008
 877.55;  -30.670;  -37.360;32981.738; 0.00090; 0.00007
 878.11;  -10.270;  -22.860;32831.238; 0.00170; 0.00012
 878.68;  -24.870;  -32.460;32682.740; 0.00103; 0.00008
 879.24;  -26.870;  -39.460;32631.039; 0.00171; 0.00013
 879.80;   -6.670;  -20.160;32451.240; 0.00184; 0.00014
 880.36;   -8.470;  -46.060;32387.539; 0.00515; 0.00038
 880.92;  -13.370;  -26.660;32337.240; 0.00182; 0.00013
 881.49;  -19.270;  -40.960;32357.840; 0.00298; 0.00022
 882.05;  -19.470;  -23.460;32220.439; 0.00055; 0.00004
 882.61;   28.630;   10.040;32083.240; 0.00258; 0.00019
 883.17;   -9.170;  -41.360;32091.740; 0.00448; 0.00033
 883.74;  -27.570;  -34.960;32096.439; 0.00103; 0.00008
 884.30;  -49.370;  -64.260;31958.539; 0.00209; 0.00015
 884.86;    6.730;   -1.260;32176.439; 0.00112; 0.00008
 885.42;  -36.170;  -51.460;32150.439; 0.00215; 0.00016
 885.98;  -42.270;  -57.160;32145.740; 0.00208; 0.00015
 886.55;  -38.770;  -37.560;32321.740;-0.00017;-0.00001
 887.11;  -12.070;  -30.260;32423.840; 0.00254; 0.00019
 887.67;  -20.770;  -20.460;32421.840;-0.00004; 0.00000
 888.23;  -42.270;  -65.360;32570.340; 0.00321; 0.00024
 888.79;   -6.870;  -21.260;32596.740; 0.00200; 0.00015
 889.35;  -39.570;  -61.160;32642.240; 0.00300; 0.00022
 889.92;    7.030;  -17.060;32765.641; 0.00335; 0.00025
 890.48;  127.730;  103.240;32825.039; 0.00339; 0.00025
 891.04;  -42.870;  -43.860;32990.238; 0.00014; 0.00001
 891.60;  -58.670;  -53.960;33047.441;-0.00065;-0.00005
 892.16;  -13.470;  -20.360;33188.941; 0.00094; 0.00007
 892.72;  -40.270;  -52.660;33357.141; 0.00169; 0.00013
 893.29;  -47.570;  -67.860;33494.738; 0.00276; 0.00021
 893.85;  -36.270;  -38.260;33665.738; 0.00027; 0.00002
 894.41;  -60.670;  -50.860;33926.641;-0.00133;-0.00010
 894.97;  -13.670;  -10.160;33988.340;-0.00047;-0.00004
 895.53;  -38.570;  -52.860;34219.238; 0.00192; 0.00014
 896.09;  -29.770;  -52.360;34269.340; 0.00303; 0.00023
 896.65;  -49.870;  -45.760;34260.641;-0.00055;-0.00004
 897.21;  -12.770;  -11.360;34229.039;-0.00019;-0.00001
 897.77;  -20.870;  -39.360;34355.941; 0.00248; 0.00019
 898.34;  -35.770;  -35.160;34076.141;-0.00008;-0.00001
 898.90;   -0.970;  -22.960;33978.840; 0.00298; 0.00022
 899.46;   -7.170;  -22.260;34144.141; 0.00205; 0.00015
 900.02;   19.830;    5.240;33674.641; 0.00200; 0.00015
 900.58;  -17.570;  -25.260;33671.941; 0.00106; 0.00008
 901.14;   18.730;   11.740;33538.441; 0.00097; 0.00007
 901.70;   -2.070;  -14.960;33275.141; 0.00180; 0.00014
 902.26;  -52.170;  -55.160;33006.840; 0.00042; 0.00003
 902.82;   12.130;   -4.560;33014.641; 0.00236; 0.00018
 903.38;  -44.770;  -45.360;32705.539; 0.00008; 0.00001
 903.94;  -13.170;  -10.360;32674.340;-0.00040;-0.00003
 904.50;  -20.470;  -32.260;32451.039; 0.00170; 0.00013
 905.06;  -18.670;  -40.660;32229.039; 0.00319; 0.00024
 905.62;  -15.770;  -22.960;31916.439; 0.00105; 0.00008
 906.18;  -21.870;  -39.760;31805.539; 0.00264; 0.00020
 906.74;  -57.470;  -67.460;31546.039; 0.00149; 0.00011
 907.30;   12.830;   -3.160;31284.939; 0.00240; 0.00018
 907.86;   -0.970;   -7.460;31088.240; 0.00098; 0.00007
 908.42;    4.630;   20.040;30928.240;-0.00234;-0.00018
 908.98;   14.330;    4.940;30791.240; 0.00144; 0.00011
 909.54;   -8.670;  -10.960;30862.939; 0.00035; 0.00003
 910.10;   12.430;    7.340;30640.740; 0.00079; 0.00006
 910.66;   -3.970;  -22.660;30446.240; 0.00291; 0.00022
 911.22;   -6.870;  -22.860;30321.141; 0.00250; 0.00019
 911.78;  -42.570;  -62.760;29941.939; 0.00319; 0.00024
 912.34;   20.130;    0.540;29914.439; 0.00311; 0.00024
 912.90;   31.730;    8.240;29777.039; 0.00376; 0.00029
 913.46;  -38.570;  -57.660;29485.039; 0.00308; 0.00023
 914.02;  -27.370;  -50.860;29482.439; 0.00380; 0.00029
 914.58;  -28.670;  -34.560;29279.641; 0.00096; 0.00007
 915.14;  -30.870;  -39.560;29122.939; 0.00142; 0.00011
 915.70;  -18.970;  -26.460;29026.539; 0.00123; 0.00009
 916.26;   -1.470;  -11.060;28810.641; 0.00159; 0.00012
 916.82;  -38.270;  -53.760;28635.939; 0.00257; 0.00020
 917.38;   19.230;   -4.360;28403.039; 0.00395; 0.00030
 917.94;   97.730;   77.740;28214.240; 0.00337; 0.00026
 918.50;  -30.870;  -43.160;28052.641; 0.00208; 0.00016
 919.06;    1.930;  -12.660;27890.340; 0.00249; 0.00019
 919.62;  -20.670;  -44.260;27654.439; 0.00407; 0.00031
 920.18;   -8.770;  -19.560;27634.840; 0.00186; 0.00014
 920.73;  -16.370;  -28.760;27550.340; 0.00215; 0.00017
 921.29;  -28.170;  -39.960;27017.641; 0.00206; 0.00016
 921.85;    0.830;  -19.360;27000.840; 0.00356; 0.00027
 922.41;  -53.870;  -48.960;26863.840;-0.00087;-0.00007
 922.97;  -31.570;  -28.260;26599.539;-0.00059;-0.00005
 923.53;   22.730;    6.840;26105.939; 0.00286; 0.00022
 924.09;  -30.670;  -39.960;26005.141; 0.00168; 0.00013
 924.65;  -30.970;  -44.460;25817.740; 0.00247; 0.00019
 925.21;  -48.070;  -38.360;25588.039;-0.00179;-0.00014
 925.76;  -27.470;  -37.160;25424.439; 0.00180; 0.00014
 926.32;   -1.370;  -18.460;25229.539; 0.00318; 0.00025
 926.88;  -33.470;  -26.860;25060.340;-0.00124;-0.00010
 927.44;  -23.970;  -30.560;24711.039; 0.00125; 0.00010
 928.00;  105.530;  103.140;24361.641; 0.00046; 0.00004
 928.56;  -12.670;  -24.160;24109.539; 0.00222; 0.00017
 929.12;  -14.470;  -22.460;23807.740; 0.00155; 0.00012
 929.67;   14.730;   11.240;23666.840; 0.00068; 0.00005
 930.23;  -43.670;  -44.060;23355.141; 0.00008; 0.00001
 930.79;  -19.070;  -22.260;22957.439; 0.00064; 0.00005
 931.35;  -18.970;  -33.760;22612.039; 0.00298; 0.00023
 931.91;  -31.070;  -43.460;22275.939; 0.00253; 0.00020
 932.46;    1.230;  -17.460;21815.141; 0.00386; 0.00030
 933.02;  -32.770;  -44.760;21264.539; 0.00251; 0.00020
 933.58;  -38.970;  -48.760;20844.740; 0.00209; 0.00016
 934.14;  -65.470;  -75.860;20402.141; 0.00227; 0.00018
 934.70;  -37.770;  -52.060;19642.840; 0.00320; 0.00025
 935.25;  -27.270;  -32.560;19307.439; 0.00121; 0.00009
 935.81;   68.030;   46.540;18676.840; 0.00507; 0.00040
 936.37;  -30.670;  -41.860;17979.240; 0.00272; 0.00021
 936.93;   14.330;    4.940;17501.539; 0.00237; 0.00019
 937.49;  -16.070;  -33.060;16906.439; 0.00446; 0.00035
 938.04;  -24.470;  -27.860;16194.840; 0.00093; 0.00007
 938.60;  -41.870;  -49.460;15755.940; 0.00215; 0.00017
 939.16;  -34.670;  -41.560;15186.640; 0.00202; 0.00016
 939.72;  -58.570;  -45.660;14717.140;-0.00392;-0.00031
 940.27;   14.430;    5.340;14265.840; 0.00285; 0.00022
 940.83;  -21.870;  -30.960;14046.340; 0.00293; 0.00023
 941.39;  -17.370;  -21.960;13687.040; 0.00151; 0.00012
 941.94;  -61.470;  -74.960;13350.740; 0.00453; 0.00036
 942.50;  -28.270;  -32.560;13158.740; 0.00146; 0.00012
 943.06;    1.330;    5.340;13027.240;-0.00138;-0.00011
 943.62;   13.830;    9.540;12943.740; 0.00148; 0.00012
 944.17;   -6.270;  -21.460;12754.540; 0.00528; 0.00042
 944.73;   38.430;   20.940;12761.440; 0.00607; 0.00048
 945.29;    3.330;  -10.860;12770.440; 0.00490; 0.00039
 945.84;  -62.970;  -58.560;12694.340;-0.00152;-0.00012
 946.40;  -55.770;  -63.660;12711.140; 0.00269; 0.00021
 946.96;    5.930;    1.240;12656.240; 0.00160; 0.00013
 947.52;  -29.970;  -40.660;12695.840; 0.00361; 0.00029
 948.07;  -24.170;  -35.260;12718.240; 0.00371; 0.00029
 948.63;   33.030;   21.340;12818.540; 0.00388; 0.00031
 949.19;  -20.870;  -30.760;12749.440; 0.00325; 0.00026
 949.74;  -82.970;  -80.460;12760.940;-0.00082;-0.00006
 950.30;  -19.270;  -30.260;12769.340; 0.00354; 0.00028
 950.85;    7.930;  -22.260;12864.940; 0.00965; 0.00077
 951.41;  -46.470;  -58.160;12893.340; 0.00370; 0.00029
 951.97;    2.430;    5.540;12921.640;-0.00097;-0.00008
 952.52;  -15.370;  -11.260;12865.640;-0.00128;-0.00010
 953.08;  -28.670;  -37.660;12883.640; 0.00277; 0.00022
 953.64;   -4.470;  -29.560;12846.440; 0.00767; 0.00061
 954.19;    3.030;   -1.760;12893.040; 0.00145; 0.00012
 954.75;   21.530;   10.140;12872.140; 0.00343; 0.00027
 955.31;   28.030;    8.440;12867.940; 0.00585; 0.00047
 955.86;  -40.770;  -51.160;12774.540; 0.00309; 0.00025
 956.42;  -26.270;  -47.560;12672.940; 0.00631; 0.00050
 956.97;  -39.770;  -60.260;12694.140; 0.00604; 0.00048
 957.53;  -11.970;  -30.260;12611.240; 0.00540; 0.00043
 958.09;   -9.570;  -20.760;12552.340; 0.00328; 0.00026
 958.64;  -19.470;  -20.260;12570.040; 0.00023; 0.00002
 959.20;  -10.670;  -21.960;12548.940; 0.00328; 0.00026
 959.75;  -20.670;  -29.960;12427.440; 0.00271; 0.00022
 960.31;  -18.470;  -33.860;12418.840; 0.00446; 0.00036
 960.86;   48.630;   19.440;12464.640; 0.00844; 0.00068
 961.42;  -25.570;  -29.560;12414.340; 0.00116; 0.00009
 961.98;  -43.670;  -50.460;12345.240; 0.00197; 0.00016
 962.53;  -32.770;  -42.460;12397.740; 0.00281; 0.00023
 963.09;   40.930;   11.640;12366.040; 0.00847; 0.00068
 963.64;   15.830;    6.040;12375.340; 0.00284; 0.00023
 964.20;  -62.570;  -62.260;12267.840;-0.00009;-0.00001
 964.75;  -17.970;  -24.260;12291.440; 0.00183; 0.00015
 965.31;  -54.070;  -74.160;12248.040; 0.00585; 0.00047
 965.86;  -21.970;  -36.360;12229.140; 0.00419; 0.00034
 966.42;   38.330;   34.440;12234.340; 0.00114; 0.00009
 966.97;   28.930;    3.540;12259.840; 0.00742; 0.00060
 967.53;  -14.770;  -22.060;12095.440; 0.00215; 0.00017
 968.08;  -36.470;  -47.460;12157.440; 0.00324; 0.00026
 968.64;   11.130;   -7.160;12042.340; 0.00542; 0.00044
 969.19;   11.930;   -3.160;12075.540; 0.00448; 0.00036
 969.75;   24.930;   14.040;12006.840; 0.00323; 0.00026
 970.30;   -6.370;   -8.460;12064.140; 0.00062; 0.00005
 970.86;   10.630;   -6.260;11971.840; 0.00504; 0.00041
 971.41;  -24.970;  -25.960;11845.240; 0.00030; 0.00002
 971.97;   -5.170;  -14.860;11835.640; 0.00292; 0.00024
 972.52;  -61.070;  -55.660;11665.740;-0.00164;-0.00013
 973.08;   19.030;   18.540;11714.240; 0.00015; 0.00001
 973.63;   60.430;   39.540;11663.040; 0.00639; 0.00052
 974.19;    9.730;   -9.060;11593.140; 0.00577; 0.00047
 974.74;   -1.070;  -14.360;11666.640; 0.00410; 0.00033
 975.29;  247.430;  203.340;11620.240; 0.01367; 0.00111
 975.85;   54.230;   32.040;11558.040; 0.00691; 0.00056
 976.40;   30.530;    8.740;11484.040; 0.00686; 0.00056
 976.96;   15.030;    4.240;11406.940; 0.00341; 0.00028
 977.51;  -32.570;  -29.860;11398.840;-0.00086;-0.00007
 978.07;  -42.670;  -31.760;11290.240;-0.00348;-0.00028
 978.62;   -0.370;    1.440;11281.240;-0.00058;-0.00005
 979.17;  339.330;  273.840;11228.340; 0.02114; 0.00173
 979.73;  -30.070;  -36.360;11150.440; 0.00205; 0.00017
 980.28;   16.930;    6.440;11178.640; 0.00342; 0.00028
 980.84;    3.930;    7.040;11049.840;-0.00102;-0.00008
 981.39;  -26.170;  -30.960;11067.040; 0.00159; 0.00013
 981.94;    0.130;    4.640;10985.940;-0.00150;-0.00012
 982.50;   11.030;  -14.560;10875.540; 0.00859; 0.00071
 983.05;   -0.970;   -3.160;10793.640; 0.00074; 0.00006
 983.60;   65.030;   45.340;10866.340; 0.00668; 0.00055
 984.16;   27.530;   18.140;10723.040; 0.00323; 0.00027
 984.71;    0.030;    0.140;10737.640;-0.00004; 0.00000
 985.27;  -18.270;  -30.160;10610.940; 0.00415; 0.00034
 985.82;   16.730;    5.540;10600.940; 0.00392; 0.00032
 986.37;   29.730;   20.340;10579.940; 0.00332; 0.00027
 986.93;    9.630;   -7.560;10493.140; 0.00612; 0.00050
 987.48;  -39.670;  -38.060;10429.940;-0.00058;-0.00005
 988.03;  -16.770;  -12.360;10433.640;-0.00159;-0.00013
 988.59;  -24.670;  -21.760;10379.140;-0.00105;-0.00009
 989.14;   16.130;   -6.160;10316.040; 0.00819; 0.00068
 989.69;  -21.070;  -20.160;10319.540;-0.00034;-0.00003
 990.24;  -15.670;  -22.960;10192.540; 0.00272; 0.00023
 990.80;  -34.870;  -35.660;10144.240; 0.00030; 0.00002
 991.35;  -29.570;  -51.160;10015.240; 0.00820; 0.00068
 991.90;   10.530;    1.340;10114.540; 0.00350; 0.00029
 992.46;  -14.370;  -37.460;10020.740; 0.00890; 0.00074
 993.01;  -35.270;  -36.260; 9927.640; 0.00038; 0.00003
 993.56;  165.630;  119.940; 9917.940; 0.01792; 0.00149
 994.11;    5.130;  -11.460; 9840.440; 0.00657; 0.00055
 994.67;  -10.170;  -21.260; 9785.640; 0.00443; 0.00037
 995.22;  -28.670;  -30.460; 9703.340; 0.00072; 0.00006
 995.77;  -37.170;  -38.960; 9635.340; 0.00073; 0.00006
 996.33;    0.630;   -4.560; 9637.840; 0.00213; 0.00018
 996.88;  -29.670;  -27.760; 9517.540;-0.00079;-0.00007
 997.43;  -26.570;  -28.760; 9472.340; 0.00091; 0.00008
 997.98;   19.530;    3.140; 9370.640; 0.00692; 0.00058
 998.53;   29.230;   21.740; 9336.240; 0.00319; 0.00027
 999.09;  -10.570;  -30.660; 9233.940; 0.00866; 0.00072
 999.64;  -34.470;  -51.060; 9121.140; 0.00722; 0.00060
1000.19;  -24.970;  -44.160; 9086.640; 0.00843; 0.00070
1000.74;  -49.170;  -57.060; 9052.540; 0.00352; 0.00029
1001.30;  -30.270;  -19.160; 8993.240;-0.00500;-0.00042
1001.85;  -18.370;  -25.660; 8888.440; 0.00331; 0.00028
1002.40;  -36.670;  -49.260; 8808.140; 0.00581; 0.00049
1002.95;    1.130;    2.840; 8765.740;-0.00080;-0.00007
1003.50;   24.830;   15.340; 8714.040; 0.00451; 0.00038
1004.06;   -7.270;  -28.160; 8593.740; 0.01012; 0.00085
1004.61;  137.230;  109.140; 8532.040; 0.01383; 0.00116
1005.16;  175.030;  142.040; 8522.340; 0.01644; 0.00138
1005.71;   13.430;   -2.660; 8537.740; 0.00810; 0.00068
1006.26;  -30.770;  -31.660; 8503.640; 0.00045; 0.00004
1006.81;  -44.370;  -57.860; 8549.940; 0.00693; 0.00058
1007.37;   -4.170;  -12.460; 8518.340; 0.00431; 0.00036
1007.92;  -39.970;  -58.960; 8547.040; 0.00989; 0.00083
1008.47;   -3.470;   -9.560; 8650.340; 0.00317; 0.00027
1009.02;   -8.270;  -14.960; 8730.740; 0.00348; 0.00029
1009.57;   21.330;    5.940; 8770.540; 0.00793; 0.00067
1010.12;  -64.770;  -70.360; 8819.940; 0.00284; 0.00024
1010.67;    5.030;   -4.160; 8938.440; 0.00458; 0.00039
1011.22;   25.130;    5.640; 9023.540; 0.00950; 0.00080
1011.78;  -35.870;  -42.460; 9062.440; 0.00315; 0.00027
1012.33;  -46.070;  -45.560; 9068.940;-0.00024;-0.00002
1012.88;   30.130;   28.740; 9182.740; 0.00065; 0.00005
1013.43;   -0.270;  -11.760; 9165.640; 0.00533; 0.00045
1013.98;   17.330;    6.840; 9256.140; 0.00487; 0.00041
1014.53;  -31.970;  -34.460; 9202.140; 0.00117; 0.00010
1015.08;  -28.470;  -44.660; 9159.840; 0.00771; 0.00065
1015.63;  -34.670;  -38.860; 9075.540; 0.00203; 0.00017
1016.18;  -37.670;  -49.160; 9064.740; 0.00566; 0.00048
1016.73;   16.230;    1.040; 8920.440; 0.00767; 0.00065
1017.28;   91.730;   59.040; 8837.240; 0.01681; 0.00143
1017.84;  -22.970;  -23.560; 8738.740; 0.00031; 0.00003
1018.39;   -2.070;  -27.260; 8609.540; 0.01345; 0.00114
1018.94;  -34.070;  -47.760; 8503.540; 0.00743; 0.00063
1019.49;   28.130;   14.140; 8362.940; 0.00778; 0.00066
1020.04;   52.130;   26.240; 8286.340; 0.01465; 0.00125
1020.59;  -29.170;  -34.360; 8098.540; 0.00300; 0.00026
1021.14;   -9.970;  -19.960; 8089.340; 0.00586; 0.00050
1021.69;  -33.370;  -47.960; 7874.640; 0.00871; 0.00074
1022.24;  -28.970;  -27.460; 7839.140;-0.00092;-0.00008
1022.79;   16.430;   11.940; 7670.040; 0.00277; 0.00024
1023.34;  -12.270;  -24.560; 7596.740; 0.00771; 0.00066
1023.89;   -1.770;  -12.960; 7513.240; 0.00716; 0.00061
1024.44;   -8.570;  -15.060; 7382.240; 0.00421; 0.00036
1024.99;   10.530;    0.040; 7310.940; 0.00692; 0.00059
1025.54;   46.330;   33.840; 7213.140; 0.00835; 0.00072
1026.09;  -20.070;  -34.860; 7156.540; 0.01005; 0.00086
1026.64;  -35.770;  -36.260; 7033.140; 0.00034; 0.00003
1027.19;    4.730;    6.240; 6951.540;-0.00107;-0.00009
1027.74;  -27.670;  -25.360; 6898.540;-0.00165;-0.00014
1028.29;  -27.970;  -39.360; 6785.340; 0.00830; 0.00071
1028.84;   77.030;   41.840; 6689.140; 0.02603; 0.00224
1029.39;   23.130;    3.440; 6693.440; 0.01469; 0.00126
1029.94;  -15.370;  -45.260; 6563.140; 0.02277; 0.00196
1030.48;  -21.370;  -47.960; 6489.840; 0.02045; 0.00176
1031.03;  -27.670;  -33.460; 6408.040; 0.00456; 0.00039
1031.58;   -3.170;   -4.360; 6390.940; 0.00095; 0.00008
1032.13;  -37.070;  -46.760; 6251.740; 0.00787; 0.00068
1032.68;  -19.770;  -40.060; 6173.540; 0.01675; 0.00145
1033.23;  -27.370;  -40.760; 6056.340; 0.01117; 0.00096
1033.78;  -16.370;  -34.060; 5982.840; 0.01502; 0.00130
1034.33;    5.930;  -18.960; 5956.340; 0.02143; 0.00185
1034.88;   41.330;   24.240; 5884.440; 0.01492; 0.00129
1035.43;  -39.770;  -43.260; 5797.040; 0.00310; 0.00027
1035.98;   -6.270;  -24.560; 5726.840; 0.01651; 0.00143
1036.52;   19.530;   -7.860; 5703.140; 0.02508; 0.00217
1037.07;   22.530;   12.340; 5634.340; 0.00949; 0.00082
1037.62;    3.030;   -7.260; 5538.840; 0.00971; 0.00084
1038.17;  100.230;   72.140; 5465.440; 0.02691; 0.00233
1038.72;   -9.970;  -21.960; 5419.540; 0.01168; 0.00101
1039.27;  -14.870;  -19.060; 5313.940; 0.00416; 0.00036
1039.82;   15.930;   -9.760; 5277.140; 0.02595; 0.00225
1040.37;  -37.470;  -47.360; 5173.340; 0.01013; 0.00088
1040.91;  -28.570;  -44.660; 5135.140; 0.01672; 0.00145
1041.46;  -20.070;  -29.060; 5014.240; 0.00953; 0.00083
1042.01;  -43.670;  -49.760; 4962.740; 0.00654; 0.00057
1042.56;  -23.870;  -31.860; 4871.240; 0.00874; 0.00076
1043.11;    5.530;   -9.360; 4860.340; 0.01649; 0.00144
1043.66;   44.930;   24.240; 4779.540; 0.02331; 0.00203
1044.20;   13.030;    2.340; 4738.440; 0.01226; 0.00107
1044.75;   28.830;   14.740; 4683.040; 0.01644; 0.00144
1045.30;   37.730;   24.540; 4585.740; 0.01563; 0.00137
1045.85;    0.030;  -25.760; 4510.240; 0.03105; 0.00271
1046.40;  -30.570;  -35.760; 4447.940; 0.00636; 0.00056
1046.94;  -25.370;  -26.260; 4426.440; 0.00111; 0.00010
1047.49;   -6.270;  -23.660; 4272.140; 0.02206; 0.00193
1048.04;   47.530;   37.540; 4311.640; 0.01280; 0.00112
1048.59;  -27.270;  -42.360; 4233.240; 0.01975; 0.00173
1049.13;  115.630;   81.140; 4211.040; 0.04590; 0.00402
1049.68;  -38.170;  -49.960; 4059.940; 0.01607; 0.00141
1050.23;   10.430;   -0.060; 4062.640; 0.01444; 0.00127
1050.78;  -50.170;  -55.560; 3990.540; 0.00754; 0.00066
1051.32;  -21.970;  -29.060; 3946.840; 0.01008; 0.00089
1051.87;  231.430;  172.040; 3869.840; 0.08614; 0.00757
1052.42;    4.430;  -12.460; 3825.340; 0.02491; 0.00219
1052.97;  207.230;  152.740; 3792.340; 0.08120; 0.00715
1053.51;   -9.870;  -20.360; 3734.840; 0.01592; 0.00140
1054.06;   40.330;   16.740; 3661.740; 0.03629; 0.00320
1054.61;   -4.170;    5.140; 3613.040;-0.01464;-0.00129
1055.16;  -37.470;  -44.160; 3555.440; 0.01062; 0.00094
1055.70;  -18.270;  -25.860; 3441.340; 0.01238; 0.00109
1056.25;  -37.370;  -59.060; 3388.740; 0.03602; 0.00318
1056.80;  -26.770;  -37.360; 3359.040; 0.01781; 0.00157
1057.34;  -35.270;  -46.760; 3323.340; 0.01963; 0.00173
1057.89;  -15.870;  -38.760; 3294.340; 0.03968; 0.00351
1058.44;   11.730;    3.040; 3243.440; 0.01529; 0.00135
1058.98;  -26.170;  -34.660; 3181.040; 0.01525; 0.00135
1059.53;    2.630;  -18.360; 3089.840; 0.03835; 0.00340
1060.08;   -1.970;  -21.560; 3095.640; 0.03644; 0.00323
1060.62;   90.830;   80.440; 3037.940; 0.01956; 0.00173
1061.17;  -18.970;  -35.060; 2981.040; 0.03083; 0.00273
1061.72;  -16.370;  -17.560; 2925.640; 0.00232; 0.00021
1062.26;   13.030;    0.640; 2887.140; 0.02464; 0.00219
1062.81;   19.530;    2.640; 2868.640; 0.03432; 0.00305
1063.36;   11.530;   -3.960; 2810.640; 0.03191; 0.00284
1063.90;    5.730;    2.840; 2776.140; 0.00608; 0.00054
1064.45;    1.730;  -15.760; 2733.940; 0.03740; 0.00333
1064.99;   -9.070;  -21.260; 2665.640; 0.02657; 0.00236
1065.54;  -17.770;  -27.260; 2665.140; 0.02102; 0.00187
1066.09;   12.830;    1.540; 2624.740; 0.02546; 0.00227
1066.63;    6.130;   -4.460; 2613.240; 0.02420; 0.00216
1067.18;   64.130;   50.140; 2546.940; 0.03273; 0.00292
1067.72;   10.330;   -8.860; 2507.940; 0.04557; 0.00407
1068.27;  -22.270;  -31.060; 2435.040; 0.02114; 0.00189
1068.82;   30.030;   24.740; 2427.340; 0.01295; 0.00116
1069.36;   10.730;   -1.560; 2384.540; 0.03057; 0.00273
1069.91;  -25.170;  -27.160; 2395.540; 0.00500; 0.00045
1070.45;   -0.170;   -9.660; 2355.540; 0.02430; 0.00217
1071.00;  -28.570;  -43.760; 2277.640; 0.03939; 0.00353
1071.54;    3.630;  -14.260; 2266.040; 0.04722; 0.00423
1072.09;   78.630;   61.540; 2286.540; 0.04585; 0.00411
1072.64;    7.330;   -2.360; 2225.240; 0.02647; 0.00237
1073.18;  101.730;   75.840; 2212.340; 0.07128; 0.00639
1073.73;  158.130;  126.340; 2142.340; 0.08911; 0.00800
1074.27;   -8.270;  -35.860; 2113.340; 0.07804; 0.00701
1074.82;   30.430;    9.440; 2108.140; 0.06040; 0.00543
1075.36;   25.430;    9.140; 2087.140; 0.04765; 0.00428
1075.91;   23.230;    4.140; 2074.740; 0.05661; 0.00509
1076.45;    5.330;   13.340; 2031.240;-0.02404;-0.00216
1077.00;   -3.270;  -14.560; 1990.740; 0.03438; 0.00309
1077.54;   27.630;   19.840; 2002.540; 0.02411; 0.00217
1078.09;   23.430;   22.840; 1946.540; 0.00184; 0.00017
1078.63;  -12.270;  -33.660; 1925.340; 0.06784; 0.00612
1079.18;   -5.170;  -25.660; 1902.340; 0.06609; 0.00596
1079.72;   28.230;    8.540; 1872.140; 0.06424; 0.00580
1080.27;    0.130;  -28.260; 1833.740; 0.09415; 0.00850
1080.81;    1.630;  -27.660; 1806.540; 0.09834; 0.00888
1081.36;  -44.470;  -49.360; 1759.940; 0.01670; 0.00151
1081.90;   72.430;   47.640; 1773.640; 0.08574; 0.00775
1082.44;   41.730;   23.340; 1742.540; 0.06475; 0.00586
1082.99;   35.230;   14.540; 1720.040; 0.07368; 0.00667
1083.53;   12.930;  -15.760; 1669.840; 0.10380; 0.00940
1084.08;   38.530;   12.140; 1694.940; 0.09669; 0.00876
1084.62;   20.430;   11.540; 1650.140; 0.03316; 0.00301
1085.17;    8.030;   -6.960; 1644.640; 0.05615; 0.00509
1085.71;  -22.170;  -16.460; 1604.940;-0.02173;-0.00197
1086.25;   24.330;   13.040; 1614.040; 0.04370; 0.00397
1086.80;   22.030;   10.940; 1558.740; 0.04371; 0.00397
1087.34;   10.630;    0.740; 1549.140; 0.03936; 0.00358
1087.89;   -3.570;  -21.460; 1518.340; 0.07222; 0.00657
1088.43;    9.830;   12.440; 1515.840;-0.01067;-0.00097
1088.97;   14.430;    3.040; 1494.940; 0.04727; 0.00430
1089.52;  208.330;  167.440; 1492.140; 0.17222; 0.01568
1090.06;   89.430;   65.840; 1451.240; 0.10057; 0.00916
1090.61;   17.930;    6.040; 1435.740; 0.05168; 0.00471
1091.15;  163.130;  140.040; 1394.140; 0.10197; 0.00930
1091.69;   31.130;   17.840; 1365.740; 0.05956; 0.00543
1092.24;   21.330;    9.140; 1368.940; 0.05544; 0.00506
1092.78;   23.930;   28.540; 1337.940;-0.02138;-0.00195
1093.32;   26.630;   11.840; 1350.740; 0.06853; 0.00626
1093.87;   41.230;   16.840; 1327.440; 0.11573; 0.01058
1094.41;   -7.570;  -11.260; 1272.140; 0.01773; 0.00162
1094.95;  135.230;  110.440; 1282.440; 0.12043; 0.01102
1095.50;  -20.370;  -27.860; 1250.140; 0.03722; 0.00341
1096.04;   37.330;   45.340; 1268.140;-0.04009;-0.00367
1096.58;  160.930;  134.540; 1217.440; 0.13405; 0.01229
1097.13;  -11.770;  -25.860; 1182.740; 0.07242; 0.00664
1097.67;   74.430;   49.940; 1204.340; 0.12812; 0.01175
1098.21;   -5.170;  -16.960; 1162.040; 0.06244; 0.00573
1098.76;    3.530;   -2.160; 1142.840; 0.03057; 0.00281
1099.30;   -0.870;  -14.060; 1130.140; 0.07159; 0.00658
1099.84;   -8.370;  -25.760; 1116.240; 0.09599; 0.00882
1100.38;   41.930;   25.840; 1094.240; 0.08993; 0.00827

